"subject_id","trial_id","expertise","congruity","reaction_time","is_correct","word","sound","word_label"
"1",1,"Non-musician","congruent",901.4,TRUE,"Pos","Pos","Pos_1"
"1",2,"Non-musician","congruent",905.5,TRUE,"Pos","Pos","Pos_2"
"1",3,"Non-musician","incongruent",946.7,FALSE,"Pos","Neg","Pos_3"
"1",4,"Non-musician","congruent",957.6,TRUE,"Pos","Pos","Pos_4"
"1",5,"Non-musician","congruent",946.3,TRUE,"Pos","Pos","Pos_5"
"1",6,"Non-musician","congruent",951.1,TRUE,"Pos","Pos","Pos_6"
"1",7,"Non-musician","congruent",922.8,TRUE,"Pos","Pos","Pos_7"
"1",8,"Non-musician","congruent",904.8,TRUE,"Pos","Pos","Pos_8"
"1",9,"Non-musician","congruent",842.8,TRUE,"Neg","Neg","Neg_1"
"1",10,"Non-musician","incongruent",965.4,FALSE,"Neg","Pos","Neg_2"
"1",11,"Non-musician","congruent",921.2,TRUE,"Neg","Neg","Neg_3"
"1",12,"Non-musician","congruent",832,FALSE,"Neg","Neg","Neg_4"
"1",13,"Non-musician","incongruent",958.5,TRUE,"Neg","Pos","Neg_5"
"1",14,"Non-musician","incongruent",930.2,TRUE,"Neg","Pos","Neg_6"
"1",15,"Non-musician","congruent",926.3,TRUE,"Neg","Neg","Neg_7"
"1",16,"Non-musician","incongruent",923.5,FALSE,"Neg","Pos","Neg_8"
"1",17,"Non-musician","incongruent",973,FALSE,"Pos","Neg","Pos_1"
"1",18,"Non-musician","incongruent",902.4,FALSE,"Pos","Neg","Pos_2"
"1",19,"Non-musician","incongruent",1007,TRUE,"Pos","Neg","Pos_3"
"1",20,"Non-musician","incongruent",879.5,TRUE,"Pos","Neg","Pos_4"
"1",21,"Non-musician","incongruent",843.2,TRUE,"Pos","Neg","Pos_5"
"1",22,"Non-musician","congruent",931.8,FALSE,"Pos","Pos","Pos_6"
"1",23,"Non-musician","incongruent",974,TRUE,"Pos","Neg","Pos_7"
"1",24,"Non-musician","congruent",1001.7,TRUE,"Pos","Pos","Pos_8"
"1",25,"Non-musician","incongruent",930.8,TRUE,"Neg","Pos","Neg_1"
"1",26,"Non-musician","congruent",895.3,TRUE,"Neg","Neg","Neg_2"
"1",27,"Non-musician","incongruent",939,TRUE,"Neg","Pos","Neg_3"
"1",28,"Non-musician","congruent",892.4,TRUE,"Neg","Neg","Neg_4"
"1",29,"Non-musician","incongruent",920.4,TRUE,"Neg","Pos","Neg_5"
"1",30,"Non-musician","congruent",882.2,TRUE,"Neg","Neg","Neg_6"
"1",31,"Non-musician","congruent",1030.8,TRUE,"Neg","Neg","Neg_7"
"1",32,"Non-musician","incongruent",939.5,TRUE,"Neg","Pos","Neg_8"
"1",33,"Non-musician","congruent",823.4,TRUE,"Pos","Pos","Pos_1"
"1",34,"Non-musician","incongruent",876.4,TRUE,"Pos","Neg","Pos_2"
"1",35,"Non-musician","congruent",881,TRUE,"Pos","Pos","Pos_3"
"1",36,"Non-musician","congruent",786.3,TRUE,"Pos","Pos","Pos_4"
"1",37,"Non-musician","congruent",890.1,TRUE,"Pos","Pos","Pos_5"
"1",38,"Non-musician","congruent",874.5,TRUE,"Pos","Pos","Pos_6"
"1",39,"Non-musician","congruent",942.9,FALSE,"Pos","Pos","Pos_7"
"1",40,"Non-musician","congruent",854.4,TRUE,"Pos","Pos","Pos_8"
"1",41,"Non-musician","congruent",950.6,TRUE,"Neg","Neg","Neg_1"
"1",42,"Non-musician","congruent",898.8,TRUE,"Neg","Neg","Neg_2"
"1",43,"Non-musician","incongruent",888.7,TRUE,"Neg","Pos","Neg_3"
"1",44,"Non-musician","congruent",885.5,TRUE,"Neg","Neg","Neg_4"
"1",45,"Non-musician","congruent",966.3,TRUE,"Neg","Neg","Neg_5"
"1",46,"Non-musician","congruent",879.6,TRUE,"Neg","Neg","Neg_6"
"1",47,"Non-musician","congruent",842.9,TRUE,"Neg","Neg","Neg_7"
"1",48,"Non-musician","incongruent",855,FALSE,"Neg","Pos","Neg_8"
"1",49,"Non-musician","congruent",883.2,TRUE,"Pos","Pos","Pos_1"
"1",50,"Non-musician","incongruent",864.3,TRUE,"Pos","Neg","Pos_2"
"1",51,"Non-musician","incongruent",897.4,TRUE,"Pos","Neg","Pos_3"
"1",52,"Non-musician","incongruent",987,TRUE,"Pos","Neg","Pos_4"
"1",53,"Non-musician","congruent",827.6,TRUE,"Pos","Pos","Pos_5"
"1",54,"Non-musician","incongruent",916,FALSE,"Pos","Neg","Pos_6"
"1",55,"Non-musician","congruent",23.6469968524761,TRUE,"Pos","Pos","Pos_7"
"1",56,"Non-musician","congruent",932,TRUE,"Pos","Pos","Pos_8"
"1",57,"Non-musician","incongruent",970.3,TRUE,"Neg","Pos","Neg_1"
"1",58,"Non-musician","congruent",943.2,TRUE,"Neg","Neg","Neg_2"
"1",59,"Non-musician","congruent",982.5,TRUE,"Neg","Neg","Neg_3"
"1",60,"Non-musician","incongruent",914.5,TRUE,"Neg","Pos","Neg_4"
"1",61,"Non-musician","incongruent",977.7,TRUE,"Neg","Pos","Neg_5"
"1",62,"Non-musician","congruent",900.9,TRUE,"Neg","Neg","Neg_6"
"1",63,"Non-musician","congruent",866.5,TRUE,"Neg","Neg","Neg_7"
"1",64,"Non-musician","incongruent",947.3,TRUE,"Neg","Pos","Neg_8"
"2",1,"Musician","congruent",756.4,TRUE,"Pos","Pos","Pos_1"
"2",2,"Musician","congruent",865.4,TRUE,"Pos","Pos","Pos_2"
"2",3,"Musician","congruent",832.6,TRUE,"Pos","Pos","Pos_3"
"2",4,"Musician","incongruent",761,TRUE,"Pos","Neg","Pos_4"
"2",5,"Musician","incongruent",873.5,TRUE,"Pos","Neg","Pos_5"
"2",6,"Musician","congruent",784.8,TRUE,"Pos","Pos","Pos_6"
"2",7,"Musician","congruent",768.1,TRUE,"Pos","Pos","Pos_7"
"2",8,"Musician","congruent",720.1,TRUE,"Pos","Pos","Pos_8"
"2",9,"Musician","incongruent",782.8,TRUE,"Neg","Pos","Neg_1"
"2",10,"Musician","incongruent",772.6,TRUE,"Neg","Pos","Neg_2"
"2",11,"Musician","incongruent",810.9,TRUE,"Neg","Pos","Neg_3"
"2",12,"Musician","incongruent",738.4,TRUE,"Neg","Pos","Neg_4"
"2",13,"Musician","congruent",715.5,TRUE,"Neg","Neg","Neg_5"
"2",14,"Musician","incongruent",848,TRUE,"Neg","Pos","Neg_6"
"2",15,"Musician","incongruent",777.7,TRUE,"Neg","Pos","Neg_7"
"2",16,"Musician","incongruent",805.9,TRUE,"Neg","Pos","Neg_8"
"2",17,"Musician","incongruent",692.8,TRUE,"Pos","Neg","Pos_1"
"2",18,"Musician","congruent",771.7,TRUE,"Pos","Pos","Pos_2"
"2",19,"Musician","incongruent",857.9,TRUE,"Pos","Neg","Pos_3"
"2",20,"Musician","incongruent",833.6,TRUE,"Pos","Neg","Pos_4"
"2",21,"Musician","incongruent",770.7,TRUE,"Pos","Neg","Pos_5"
"2",22,"Musician","congruent",756.5,TRUE,"Pos","Pos","Pos_6"
"2",23,"Musician","congruent",820.2,TRUE,"Pos","Pos","Pos_7"
"2",24,"Musician","incongruent",739.1,TRUE,"Pos","Neg","Pos_8"
"2",25,"Musician","congruent",729,TRUE,"Neg","Neg","Neg_1"
"2",26,"Musician","congruent",634.9,FALSE,"Neg","Neg","Neg_2"
"2",27,"Musician","congruent",776.1,TRUE,"Neg","Neg","Neg_3"
"2",28,"Musician","incongruent",829.2,TRUE,"Neg","Pos","Neg_4"
"2",29,"Musician","incongruent",757.4,TRUE,"Neg","Pos","Neg_5"
"2",30,"Musician","congruent",749.9,TRUE,"Neg","Neg","Neg_6"
"2",31,"Musician","incongruent",796.3,TRUE,"Neg","Pos","Neg_7"
"2",32,"Musician","incongruent",755,TRUE,"Neg","Pos","Neg_8"
"2",33,"Musician","incongruent",707.4,TRUE,"Pos","Neg","Pos_1"
"2",34,"Musician","incongruent",837.9,TRUE,"Pos","Neg","Pos_2"
"2",35,"Musician","congruent",732.4,TRUE,"Pos","Pos","Pos_3"
"2",36,"Musician","incongruent",826.8,TRUE,"Pos","Neg","Pos_4"
"2",37,"Musician","congruent",742.4,TRUE,"Pos","Pos","Pos_5"
"2",38,"Musician","incongruent",811.6,FALSE,"Pos","Neg","Pos_6"
"2",39,"Musician","congruent",712.3,TRUE,"Pos","Pos","Pos_7"
"2",40,"Musician","congruent",862.3,TRUE,"Pos","Pos","Pos_8"
"2",41,"Musician","congruent",736,TRUE,"Neg","Neg","Neg_1"
"2",42,"Musician","incongruent",738.5,TRUE,"Neg","Pos","Neg_2"
"2",43,"Musician","congruent",740.9,FALSE,"Neg","Neg","Neg_3"
"2",44,"Musician","incongruent",742.8,TRUE,"Neg","Pos","Neg_4"
"2",45,"Musician","congruent",755.4,TRUE,"Neg","Neg","Neg_5"
"2",46,"Musician","incongruent",761.6,TRUE,"Neg","Pos","Neg_6"
"2",47,"Musician","congruent",712.1,TRUE,"Neg","Neg","Neg_7"
"2",48,"Musician","incongruent",837.6,TRUE,"Neg","Pos","Neg_8"
"2",49,"Musician","congruent",691.2,TRUE,"Pos","Pos","Pos_1"
"2",50,"Musician","incongruent",760.3,TRUE,"Pos","Neg","Pos_2"
"2",51,"Musician","congruent",743.6,TRUE,"Pos","Pos","Pos_3"
"2",52,"Musician","incongruent",807.3,TRUE,"Pos","Neg","Pos_4"
"2",53,"Musician","incongruent",792.6,FALSE,"Pos","Neg","Pos_5"
"2",54,"Musician","congruent",800.4,TRUE,"Pos","Pos","Pos_6"
"2",55,"Musician","congruent",892.5,TRUE,"Pos","Pos","Pos_7"
"2",56,"Musician","congruent",840.3,FALSE,"Pos","Pos","Pos_8"
"2",57,"Musician","incongruent",791.4,TRUE,"Neg","Pos","Neg_1"
"2",58,"Musician","congruent",778.8,TRUE,"Neg","Neg","Neg_2"
"2",59,"Musician","incongruent",775,TRUE,"Neg","Pos","Neg_3"
"2",60,"Musician","incongruent",8868.5085834004,TRUE,"Neg","Pos","Neg_4"
"2",61,"Musician","incongruent",816.3,TRUE,"Neg","Pos","Neg_5"
"2",62,"Musician","congruent",854.7,TRUE,"Neg","Neg","Neg_6"
"2",63,"Musician","congruent",755.5,TRUE,"Neg","Neg","Neg_7"
"2",64,"Musician","congruent",811.4,TRUE,"Neg","Neg","Neg_8"
"3",1,"Musician","congruent",845.9,TRUE,"Pos","Pos","Pos_1"
"3",2,"Musician","incongruent",791.7,TRUE,"Pos","Neg","Pos_2"
"3",3,"Musician","congruent",760.3,TRUE,"Pos","Pos","Pos_3"
"3",4,"Musician","congruent",783,TRUE,"Pos","Pos","Pos_4"
"3",5,"Musician","congruent",803.4,TRUE,"Pos","Pos","Pos_5"
"3",6,"Musician","congruent",909.3,TRUE,"Pos","Pos","Pos_6"
"3",7,"Musician","congruent",863.7,TRUE,"Pos","Pos","Pos_7"
"3",8,"Musician","congruent",1776.44244523253,TRUE,"Pos","Pos","Pos_8"
"3",9,"Musician","incongruent",867.5,TRUE,"Neg","Pos","Neg_1"
"3",10,"Musician","congruent",782.5,TRUE,"Neg","Neg","Neg_2"
"3",11,"Musician","incongruent",887.2,TRUE,"Neg","Pos","Neg_3"
"3",12,"Musician","incongruent",757.3,TRUE,"Neg","Pos","Neg_4"
"3",13,"Musician","congruent",791.9,TRUE,"Neg","Neg","Neg_5"
"3",14,"Musician","congruent",819.9,TRUE,"Neg","Neg","Neg_6"
"3",15,"Musician","incongruent",813.7,TRUE,"Neg","Pos","Neg_7"
"3",16,"Musician","congruent",847.6,TRUE,"Neg","Neg","Neg_8"
"3",17,"Musician","incongruent",2327.29696878232,TRUE,"Pos","Neg","Pos_1"
"3",18,"Musician","incongruent",835.3,FALSE,"Pos","Neg","Pos_2"
"3",19,"Musician","incongruent",878.3,TRUE,"Pos","Neg","Pos_3"
"3",20,"Musician","congruent",843.9,TRUE,"Pos","Pos","Pos_4"
"3",21,"Musician","incongruent",798.2,TRUE,"Pos","Neg","Pos_5"
"3",22,"Musician","incongruent",824.3,TRUE,"Pos","Neg","Pos_6"
"3",23,"Musician","congruent",791.8,TRUE,"Pos","Pos","Pos_7"
"3",24,"Musician","incongruent",806.5,TRUE,"Pos","Neg","Pos_8"
"3",25,"Musician","congruent",786,TRUE,"Neg","Neg","Neg_1"
"3",26,"Musician","congruent",813.4,TRUE,"Neg","Neg","Neg_2"
"3",27,"Musician","congruent",912.4,TRUE,"Neg","Neg","Neg_3"
"3",28,"Musician","incongruent",805.9,TRUE,"Neg","Pos","Neg_4"
"3",29,"Musician","incongruent",931.7,TRUE,"Neg","Pos","Neg_5"
"3",30,"Musician","congruent",882.9,TRUE,"Neg","Neg","Neg_6"
"3",31,"Musician","congruent",887.7,TRUE,"Neg","Neg","Neg_7"
"3",32,"Musician","incongruent",823.5,TRUE,"Neg","Pos","Neg_8"
"3",33,"Musician","incongruent",25.7509020809084,FALSE,"Pos","Neg","Pos_1"
"3",34,"Musician","congruent",932,TRUE,"Pos","Pos","Pos_2"
"3",35,"Musician","congruent",846.4,TRUE,"Pos","Pos","Pos_3"
"3",36,"Musician","congruent",797.5,TRUE,"Pos","Pos","Pos_4"
"3",37,"Musician","incongruent",805.6,TRUE,"Pos","Neg","Pos_5"
"3",38,"Musician","incongruent",908.7,TRUE,"Pos","Neg","Pos_6"
"3",39,"Musician","incongruent",842.4,TRUE,"Pos","Neg","Pos_7"
"3",40,"Musician","incongruent",873.9,TRUE,"Pos","Neg","Pos_8"
"3",41,"Musician","incongruent",816.2,TRUE,"Neg","Pos","Neg_1"
"3",42,"Musician","incongruent",863.2,TRUE,"Neg","Pos","Neg_2"
"3",43,"Musician","incongruent",825,TRUE,"Neg","Pos","Neg_3"
"3",44,"Musician","incongruent",893.4,TRUE,"Neg","Pos","Neg_4"
"3",45,"Musician","congruent",833.1,TRUE,"Neg","Neg","Neg_5"
"3",46,"Musician","incongruent",812,TRUE,"Neg","Pos","Neg_6"
"3",47,"Musician","congruent",815.3,TRUE,"Neg","Neg","Neg_7"
"3",48,"Musician","incongruent",911.1,TRUE,"Neg","Pos","Neg_8"
"3",49,"Musician","incongruent",801.5,TRUE,"Pos","Neg","Pos_1"
"3",50,"Musician","congruent",727.8,TRUE,"Pos","Pos","Pos_2"
"3",51,"Musician","congruent",783.2,TRUE,"Pos","Pos","Pos_3"
"3",52,"Musician","incongruent",717.8,TRUE,"Pos","Neg","Pos_4"
"3",53,"Musician","incongruent",789.2,FALSE,"Pos","Neg","Pos_5"
"3",54,"Musician","incongruent",17.0596771710552,TRUE,"Pos","Neg","Pos_6"
"3",55,"Musician","congruent",811.3,TRUE,"Pos","Pos","Pos_7"
"3",56,"Musician","congruent",873.4,TRUE,"Pos","Pos","Pos_8"
"3",57,"Musician","congruent",782.4,TRUE,"Neg","Neg","Neg_1"
"3",58,"Musician","incongruent",848.7,TRUE,"Neg","Pos","Neg_2"
"3",59,"Musician","congruent",918.7,TRUE,"Neg","Neg","Neg_3"
"3",60,"Musician","congruent",783.1,TRUE,"Neg","Neg","Neg_4"
"3",61,"Musician","congruent",828.3,TRUE,"Neg","Neg","Neg_5"
"3",62,"Musician","congruent",717.4,TRUE,"Neg","Neg","Neg_6"
"3",63,"Musician","congruent",756.3,TRUE,"Neg","Neg","Neg_7"
"3",64,"Musician","congruent",885.2,TRUE,"Neg","Neg","Neg_8"
"4",1,"Non-musician","incongruent",853.6,TRUE,"Pos","Neg","Pos_1"
"4",2,"Non-musician","congruent",904.8,TRUE,"Pos","Pos","Pos_2"
"4",3,"Non-musician","incongruent",891.4,FALSE,"Pos","Neg","Pos_3"
"4",4,"Non-musician","congruent",784.4,TRUE,"Pos","Pos","Pos_4"
"4",5,"Non-musician","incongruent",797.2,TRUE,"Pos","Neg","Pos_5"
"4",6,"Non-musician","incongruent",984.5,TRUE,"Pos","Neg","Pos_6"
"4",7,"Non-musician","incongruent",832.9,TRUE,"Pos","Neg","Pos_7"
"4",8,"Non-musician","congruent",947,TRUE,"Pos","Pos","Pos_8"
"4",9,"Non-musician","incongruent",906.1,TRUE,"Neg","Pos","Neg_1"
"4",10,"Non-musician","incongruent",1011.6,TRUE,"Neg","Pos","Neg_2"
"4",11,"Non-musician","incongruent",957.1,TRUE,"Neg","Pos","Neg_3"
"4",12,"Non-musician","incongruent",885.9,FALSE,"Neg","Pos","Neg_4"
"4",13,"Non-musician","incongruent",993.9,TRUE,"Neg","Pos","Neg_5"
"4",14,"Non-musician","congruent",850.2,TRUE,"Neg","Neg","Neg_6"
"4",15,"Non-musician","incongruent",903,TRUE,"Neg","Pos","Neg_7"
"4",16,"Non-musician","congruent",853.5,TRUE,"Neg","Neg","Neg_8"
"4",17,"Non-musician","incongruent",828.6,TRUE,"Pos","Neg","Pos_1"
"4",18,"Non-musician","congruent",893.5,TRUE,"Pos","Pos","Pos_2"
"4",19,"Non-musician","congruent",915.4,TRUE,"Pos","Pos","Pos_3"
"4",20,"Non-musician","incongruent",914.1,FALSE,"Pos","Neg","Pos_4"
"4",21,"Non-musician","congruent",916,TRUE,"Pos","Pos","Pos_5"
"4",22,"Non-musician","congruent",828.1,TRUE,"Pos","Pos","Pos_6"
"4",23,"Non-musician","congruent",866.8,TRUE,"Pos","Pos","Pos_7"
"4",24,"Non-musician","congruent",864,TRUE,"Pos","Pos","Pos_8"
"4",25,"Non-musician","congruent",767.2,TRUE,"Neg","Neg","Neg_1"
"4",26,"Non-musician","incongruent",871,TRUE,"Neg","Pos","Neg_2"
"4",27,"Non-musician","incongruent",962.9,TRUE,"Neg","Pos","Neg_3"
"4",28,"Non-musician","congruent",911.1,TRUE,"Neg","Neg","Neg_4"
"4",29,"Non-musician","congruent",802.9,TRUE,"Neg","Neg","Neg_5"
"4",30,"Non-musician","incongruent",830.1,TRUE,"Neg","Pos","Neg_6"
"4",31,"Non-musician","incongruent",800.7,FALSE,"Neg","Pos","Neg_7"
"4",32,"Non-musician","incongruent",947.3,TRUE,"Neg","Pos","Neg_8"
"4",33,"Non-musician","incongruent",859.4,FALSE,"Pos","Neg","Pos_1"
"4",34,"Non-musician","incongruent",865.8,TRUE,"Pos","Neg","Pos_2"
"4",35,"Non-musician","congruent",785,TRUE,"Pos","Pos","Pos_3"
"4",36,"Non-musician","incongruent",877,TRUE,"Pos","Neg","Pos_4"
"4",37,"Non-musician","incongruent",953.2,TRUE,"Pos","Neg","Pos_5"
"4",38,"Non-musician","congruent",1572.46024359483,TRUE,"Pos","Pos","Pos_6"
"4",39,"Non-musician","incongruent",909.5,TRUE,"Pos","Neg","Pos_7"
"4",40,"Non-musician","incongruent",895,TRUE,"Pos","Neg","Pos_8"
"4",41,"Non-musician","incongruent",853.5,FALSE,"Neg","Pos","Neg_1"
"4",42,"Non-musician","incongruent",793.1,TRUE,"Neg","Pos","Neg_2"
"4",43,"Non-musician","congruent",893.1,TRUE,"Neg","Neg","Neg_3"
"4",44,"Non-musician","incongruent",896,TRUE,"Neg","Pos","Neg_4"
"4",45,"Non-musician","congruent",944.5,TRUE,"Neg","Neg","Neg_5"
"4",46,"Non-musician","incongruent",932.3,TRUE,"Neg","Pos","Neg_6"
"4",47,"Non-musician","incongruent",NA,TRUE,"Neg","Pos","Neg_7"
"4",48,"Non-musician","congruent",949.9,TRUE,"Neg","Neg","Neg_8"
"4",49,"Non-musician","congruent",782.9,TRUE,"Pos","Pos","Pos_1"
"4",50,"Non-musician","incongrunet",990.7,FALSE,"Pos","Neg","Pos_2"
"4",51,"Non-musician","congruent",774.7,TRUE,"Pos","Pos","Pos_3"
"4",52,"Non-musician","incongruent",808.4,TRUE,"Pos","Neg","Pos_4"
"4",53,"Non-musician","congruent",854.9,TRUE,"Pos","Pos","Pos_5"
"4",54,"Non-musician","incongruent",836.6,TRUE,"Pos","Neg","Pos_6"
"4",55,"Non-musician","incongruent",914.6,TRUE,"Pos","Neg","Pos_7"
"4",56,"Non-musician","incongruent",932.9,TRUE,"Pos","Neg","Pos_8"
"4",57,"Non-musician","incongruent",953.1,TRUE,"Neg","Pos","Neg_1"
"4",58,"Non-musician","congruent",904.8,TRUE,"Neg","Neg","Neg_2"
"4",59,"Non-musician","incongruent",944.4,FALSE,"Neg","Pos","Neg_3"
"4",60,"Non-musician","incongruent",957.3,TRUE,"Neg","Pos","Neg_4"
"4",61,"Non-musician","congruent",921.4,TRUE,"Neg","Neg","Neg_5"
"4",62,"Non-musician","congruent",866.5,TRUE,"Neg","Neg","Neg_6"
"4",63,"Non-musician","incongruent",774.7,TRUE,"Neg","Pos","Neg_7"
"4",64,"Non-musician","incongruent",823.3,TRUE,"Neg","Pos","Neg_8"
"5",1,"Musician","incongruent",830.4,TRUE,"Pos","Neg","Pos_1"
"5",2,"Musician","congruent",713.4,TRUE,"Pos","Pos","Pos_2"
"5",3,"Musician","incongruent",896,FALSE,"Pos","Neg","Pos_3"
"5",4,"Musician","incongruent",829,TRUE,"Pos","Neg","Pos_4"
"5",5,"Musician","incongruent",870.6,TRUE,"Pos","Neg","Pos_5"
"5",6,"Musician","congruent",798.8,TRUE,"Pos","Pos","Pos_6"
"5",7,"Musician","incongruent",764.9,TRUE,"Pos","Neg","Pos_7"
"5",8,"Musician","incongruent",777.6,TRUE,"Pos","Neg","Pos_8"
"5",9,"Musician","incongruent",764.5,TRUE,"Neg","Pos","Neg_1"
"5",10,"Musician","incongruent",842.6,TRUE,"Neg","Pos","Neg_2"
"5",11,"Musician","incongruent",847,TRUE,"Neg","Pos","Neg_3"
"5",12,"Musician","incongruent",822,TRUE,"Neg","Pos","Neg_4"
"5",13,"Musician","congruent",839.9,TRUE,"Neg","Neg","Neg_5"
"5",14,"Musician","incongruent",919.5,TRUE,"Neg","Pos","Neg_6"
"5",15,"Musician","incongruent",888.4,TRUE,"Neg","Pos","Neg_7"
"5",16,"Musician","incongruent",860.1,TRUE,"Neg","Pos","Neg_8"
"5",17,"Musician","congruent",860,TRUE,"Pos","Pos","Pos_1"
"5",18,"Musician","congruent",890.8,TRUE,"Pos","Pos","Pos_2"
"5",19,"Musician","incongruent",886.9,TRUE,"Pos","Neg","Pos_3"
"5",20,"Musician","incongruent",733,TRUE,"Pos","Neg","Pos_4"
"5",21,"Musician","congruent",814.7,FALSE,"Pos","Pos","Pos_5"
"5",22,"Musician","congruent",834.2,TRUE,"Pos","Pos","Pos_6"
"5",23,"Musician","congruent",850,TRUE,"Pos","Pos","Pos_7"
"5",24,"Musician","incongruent",898.3,TRUE,"Pos","Neg","Pos_8"
"5",25,"Musician","incongrunet",842.2,TRUE,"Neg","Pos","Neg_1"
"5",26,"Musician","incongruent",880.1,TRUE,"Neg","Pos","Neg_2"
"5",27,"Musician","congruent",839.2,TRUE,"Neg","Neg","Neg_3"
"5",28,"Musician","congruent",839.9,TRUE,"Neg","Neg","Neg_4"
"5",29,"Musician","incongruent",874.5,TRUE,"Neg","Pos","Neg_5"
"5",30,"Musician","congruent",809.1,TRUE,"Neg","Neg","Neg_6"
"5",31,"Musician","incongruent",865.8,TRUE,"Neg","Pos","Neg_7"
"5",32,"Musician","congruent",877.5,TRUE,"Neg","Neg","Neg_8"
"5",33,"Musician","congruent",785.1,TRUE,"Pos","Pos","Pos_1"
"5",34,"Musician","congruent",838.2,TRUE,"Pos","Pos","Pos_2"
"5",35,"Musician","incongruent",821.3,TRUE,"Pos","Neg","Pos_3"
"5",36,"Musician","congruent",780.2,TRUE,"Pos","Pos","Pos_4"
"5",37,"Musician","congruent",835.7,TRUE,"Pos","Pos","Pos_5"
"5",38,"Musician","congruent",752.8,TRUE,"Pos","Pos","Pos_6"
"5",39,"Musician","congruent",849.6,TRUE,"Pos","Pos","Pos_7"
"5",40,"Musician","incongruent",873.7,TRUE,"Pos","Neg","Pos_8"
"5",41,"Musician","congruent",809.8,TRUE,"Neg","Neg","Neg_1"
"5",42,"Musician","incongruent",870.9,FALSE,"Neg","Pos","Neg_2"
"5",43,"Musician","congruent",744.4,TRUE,"Neg","Neg","Neg_3"
"5",44,"Musician","congruent",793.7,TRUE,"Neg","Neg","Neg_4"
"5",45,"Musician","congruent",866.6,TRUE,"Neg","Neg","Neg_5"
"5",46,"Musician","congruent",885.4,TRUE,"Neg","Neg","Neg_6"
"5",47,"Musician","incongruent",873.5,FALSE,"Neg","Pos","Neg_7"
"5",48,"Musician","incongruent",852.2,TRUE,"Neg","Pos","Neg_8"
"5",49,"Musician","incongruent",848.8,TRUE,"Pos","Neg","Pos_1"
"5",50,"Musician","congruent",813.7,TRUE,"Pos","Pos","Pos_2"
"5",51,"Musician","incongruent",868.2,TRUE,"Pos","Neg","Pos_3"
"5",52,"Musician","congruent",7941.35733973235,TRUE,"Pos","Pos","Pos_4"
"5",53,"Musician","congruent",756.7,TRUE,"Pos","Pos","Pos_5"
"5",54,"Musician","congruent",850.2,TRUE,"Pos","Pos","Pos_6"
"5",55,"Musician","incongruent",840.3,TRUE,"Pos","Neg","Pos_7"
"5",56,"Musician","congruent",764.2,TRUE,"Pos","Pos","Pos_8"
"5",57,"Musician","incongruent",802.2,TRUE,"Neg","Pos","Neg_1"
"5",58,"Musician","incongruent",819,TRUE,"Neg","Pos","Neg_2"
"5",59,"Musician","incongruent",837.8,TRUE,"Neg","Pos","Neg_3"
"5",60,"Musician","congruent",790.5,TRUE,"Neg","Neg","Neg_4"
"5",61,"Musician","congruent",771.3,TRUE,"Neg","Neg","Neg_5"
"5",62,"Musician","congruent",782.3,TRUE,"Neg","Neg","Neg_6"
"5",63,"Musician","congruent",791.7,TRUE,"Neg","Neg","Neg_7"
"5",64,"Musician","incongruent",729.3,TRUE,"Neg","Pos","Neg_8"
"6",1,"Musician","congruent",791.3,TRUE,"Pos","Pos","Pos_1"
"6",2,"Musician","congruent",769.2,TRUE,"Pos","Pos","Pos_2"
"6",3,"Musician","congruent",825.8,TRUE,"Pos","Pos","Pos_3"
"6",4,"Musician","congruent",769.2,TRUE,"Pos","Pos","Pos_4"
"6",5,"Musician","congruent",776.8,TRUE,"Pos","Pos","Pos_5"
"6",6,"Musician","congruent",850.1,TRUE,"Pos","Pos","Pos_6"
"6",7,"Musician","incongruent",845.6,FALSE,"Pos","Neg","Pos_7"
"6",8,"Musician","incongruent",784.7,TRUE,"Pos","Neg","Pos_8"
"6",9,"Musician","incongruent",879.8,TRUE,"Neg","Pos","Neg_1"
"6",10,"Musician","incongruent",845.1,FALSE,"Neg","Pos","Neg_2"
"6",11,"Musician","congruent",776,TRUE,"Neg","Neg","Neg_3"
"6",12,"Musician","congruent",799.7,TRUE,"Neg","Neg","Neg_4"
"6",13,"Musician","congruent",870.5,TRUE,"Neg","Neg","Neg_5"
"6",14,"Musician","incongruent",830.8,TRUE,"Neg","Pos","Neg_6"
"6",15,"Musician","congruent",876.6,TRUE,"Neg","Neg","Neg_7"
"6",16,"Musician","congruent",762.6,TRUE,"Neg","Neg","Neg_8"
"6",17,"Musician","congruent",737.9,TRUE,"Pos","Pos","Pos_1"
"6",18,"Musician","incongruent",776.1,TRUE,"Pos","Neg","Pos_2"
"6",19,"Musician","congruent",766.1,TRUE,"Pos","Pos","Pos_3"
"6",20,"Musician","incongruent",803.5,TRUE,"Pos","Neg","Pos_4"
"6",21,"Musician","congruent",819.3,FALSE,"Pos","Pos","Pos_5"
"6",22,"Musician","congruent",802.3,TRUE,"Pos","Pos","Pos_6"
"6",23,"Musician","congruent",871.9,TRUE,"Pos","Pos","Pos_7"
"6",24,"Musician","incongruent",786.1,TRUE,"Pos","Neg","Pos_8"
"6",25,"Musician","incongruent",831.7,TRUE,"Neg","Pos","Neg_1"
"6",26,"Musician","incongruent",769.2,FALSE,"Neg","Pos","Neg_2"
"6",27,"Musician","incongruent",889.5,TRUE,"Neg","Pos","Neg_3"
"6",28,"Musician","incongruent",779.4,TRUE,"Neg","Pos","Neg_4"
"6",29,"Musician","congruent",681.9,TRUE,"Neg","Neg","Neg_5"
"6",30,"Musician","congruent",738.4,TRUE,"Neg","Neg","Neg_6"
"6",31,"Musician","incongruent",900.1,TRUE,"Neg","Pos","Neg_7"
"6",32,"Musician","incongruent",840.8,TRUE,"Neg","Pos","Neg_8"
"6",33,"Musician","incongruent",849.2,TRUE,"Pos","Neg","Pos_1"
"6",34,"Musician","incongruent",873.8,TRUE,"Pos","Neg","Pos_2"
"6",35,"Musician","incongruent",922.8,TRUE,"Pos","Neg","Pos_3"
"6",36,"Musician","congruent",819.8,TRUE,"Pos","Pos","Pos_4"
"6",37,"Musician","incongruent",773,TRUE,"Pos","Neg","Pos_5"
"6",38,"Musician","incongruent",841.5,TRUE,"Pos","Neg","Pos_6"
"6",39,"Musician","incongruent",867.5,TRUE,"Pos","Neg","Pos_7"
"6",40,"Musician","congruent",842.5,TRUE,"Pos","Pos","Pos_8"
"6",41,"Musician","congruent",798.8,FALSE,"Neg","Neg","Neg_1"
"6",42,"Musician","congruent",758.1,TRUE,"Neg","Neg","Neg_2"
"6",43,"Musician","incongruent",961.5,TRUE,"Neg","Pos","Neg_3"
"6",44,"Musician","congruent",873.6,TRUE,"Neg","Neg","Neg_4"
"6",45,"Musician","congruent",834,TRUE,"Neg","Neg","Neg_5"
"6",46,"Musician","congruent",728.1,TRUE,"Neg","Neg","Neg_6"
"6",47,"Musician","incongruent",764.3,TRUE,"Neg","Pos","Neg_7"
"6",48,"Musician","incongruent",774.6,TRUE,"Neg","Pos","Neg_8"
"6",49,"Musician","congruent",832.1,TRUE,"Pos","Pos","Pos_1"
"6",50,"Musician","incongruent",816.8,TRUE,"Pos","Neg","Pos_2"
"6",51,"Musician","congruent",810.4,TRUE,"Pos","Pos","Pos_3"
"6",52,"Musician","incongruent",755.1,TRUE,"Pos","Neg","Pos_4"
"6",53,"Musician","incongruent",920.1,TRUE,"Pos","Neg","Pos_5"
"6",54,"Musician","incongruent",805.8,FALSE,"Pos","Neg","Pos_6"
"6",55,"Musician","congruent",826.2,TRUE,"Pos","Pos","Pos_7"
"6",56,"Musician","incongruent",910.6,FALSE,"Pos","Neg","Pos_8"
"6",57,"Musician","congruent",723.7,TRUE,"Neg","Neg","Neg_1"
"6",58,"Musician","incongruent",796.8,TRUE,"Neg","Pos","Neg_2"
"6",59,"Musician","congruent",760.2,TRUE,"Neg","Neg","Neg_3"
"6",60,"Musician","incongruent",848.5,TRUE,"Neg","Pos","Neg_4"
"6",61,"Musician","congruent",876.5,TRUE,"Neg","Neg","Neg_5"
"6",62,"Musician","congruent",702.3,TRUE,"Neg","Neg","Neg_6"
"6",63,"Musician","congruent",864.8,TRUE,"Neg","Neg","Neg_7"
"6",64,"Musician","incongruent",709.1,FALSE,"Neg","Pos","Neg_8"
"7",1,"Musician","incongruent",887.2,TRUE,"Pos","Neg","Pos_1"
"7",2,"Musician","incongruent",876.2,TRUE,"Pos","Neg","Pos_2"
"7",3,"Musician","incongruent",887.4,TRUE,"Pos","Neg","Pos_3"
"7",4,"Musician","congruent",752.7,TRUE,"Pos","Pos","Pos_4"
"7",5,"Musician","congruent",864.2,TRUE,"Pos","Pos","Pos_5"
"7",6,"Musician","congruent",912,TRUE,"Pos","Pos","Pos_6"
"7",7,"Musician","congruent",888.5,TRUE,"Pos","Pos","Pos_7"
"7",8,"Musician","congruent",819.2,TRUE,"Pos","Pos","Pos_8"
"7",9,"Musician","incongruent",878.6,TRUE,"Neg","Pos","Neg_1"
"7",10,"Musician","congruent",828.8,TRUE,"Neg","Neg","Neg_2"
"7",11,"Musician","congruent",914.5,TRUE,"Neg","Neg","Neg_3"
"7",12,"Musician","congruent",801,TRUE,"Neg","Neg","Neg_4"
"7",13,"Musician","congruent",863.4,TRUE,"Neg","Neg","Neg_5"
"7",14,"Musician","congruent",887.9,TRUE,"Neg","Neg","Neg_6"
"7",15,"Musician","incongruent",925.4,TRUE,"Neg","Pos","Neg_7"
"7",16,"Musician","incongruent",942.6,TRUE,"Neg","Pos","Neg_8"
"7",17,"Musician","congruent",873.5,TRUE,"Pos","Pos","Pos_1"
"7",18,"Musician","incongruent",890.8,TRUE,"Pos","Neg","Pos_2"
"7",19,"Musician","incongruent",887.4,TRUE,"Pos","Neg","Pos_3"
"7",20,"Musician","congruent",921.4,TRUE,"Pos","Pos","Pos_4"
"7",21,"Musician","incongruent",836.3,FALSE,"Pos","Neg","Pos_5"
"7",22,"Musician","congruent",872,TRUE,"Pos","Pos","Pos_6"
"7",23,"Musician","congruent",860.8,TRUE,"Pos","Pos","Pos_7"
"7",24,"Musician","congruent",879.9,TRUE,"Pos","Pos","Pos_8"
"7",25,"Musician","incongruent",835.2,FALSE,"Neg","Pos","Neg_1"
"7",26,"Musician","incongruent",935.1,TRUE,"Neg","Pos","Neg_2"
"7",27,"Musician","incongruent",8387,FALSE,"Neg","Pos","Neg_3"
"7",28,"Musician","incongruent",968.1,TRUE,"Neg","Pos","Neg_4"
"7",29,"Musician","incongruent",831.1,FALSE,"Neg","Pos","Neg_5"
"7",30,"Musician","congruent",878.4,TRUE,"Neg","Neg","Neg_6"
"7",31,"Musician","congruent",865.2,TRUE,"Neg","Neg","Neg_7"
"7",32,"Musician","congruent",853.6,TRUE,"Neg","Neg","Neg_8"
"7",33,"Musician","congruent",851.5,TRUE,"Pos","Pos","Pos_1"
"7",34,"Musician","incongruent",825.2,TRUE,"Pos","Neg","Pos_2"
"7",35,"Musician","incongruent",948.1,TRUE,"Pos","Neg","Pos_3"
"7",36,"Musician","incongruent",937.3,FALSE,"Pos","Neg","Pos_4"
"7",37,"Musician","incongruent",913.9,TRUE,"Pos","Neg","Pos_5"
"7",38,"Musician","incongruent",889.6,TRUE,"Pos","Neg","Pos_6"
"7",39,"Musician","incongruent",981.3,TRUE,"Pos","Neg","Pos_7"
"7",40,"Musician","congruent",878.9,TRUE,"Pos","Pos","Pos_8"
"7",41,"Musician","incongruent",886.8,TRUE,"Neg","Pos","Neg_1"
"7",42,"Musician","congruent",877.8,TRUE,"Neg","Neg","Neg_2"
"7",43,"Musician","congruent",926.6,TRUE,"Neg","Neg","Neg_3"
"7",44,"Musician","congruent",908.4,TRUE,"Neg","Neg","Neg_4"
"7",45,"Musician","congruent",870,TRUE,"Neg","Neg","Neg_5"
"7",46,"Musician","congruent",880.5,TRUE,"Neg","Neg","Neg_6"
"7",47,"Musician","congruent",935.3,TRUE,"Neg","Neg","Neg_7"
"7",48,"Musician","incongruent",802.5,TRUE,"Neg","Pos","Neg_8"
"7",49,"Musician","incongruent",915.7,TRUE,"Pos","Neg","Pos_1"
"7",50,"Musician","incongruent",829.5,TRUE,"Pos","Neg","Pos_2"
"7",51,"Musician","incongruent",821.6,TRUE,"Pos","Neg","Pos_3"
"7",52,"Musician","congruent",870.6,TRUE,"Pos","Pos","Pos_4"
"7",53,"Musician","congruent",877.2,TRUE,"Pos","Pos","Pos_5"
"7",54,"Musician","congruent",873.8,TRUE,"Pos","Pos","Pos_6"
"7",55,"Musician","congruent",877.5,TRUE,"Pos","Pos","Pos_7"
"7",56,"Musician","congruent",831.1,TRUE,"Pos","Pos","Pos_8"
"7",57,"Musician","congruent",780,TRUE,"Neg","Neg","Neg_1"
"7",58,"Musician","incongruent",949.1,TRUE,"Neg","Pos","Neg_2"
"7",59,"Musician","incongruent",821.8,TRUE,"Neg","Pos","Neg_3"
"7",60,"Musician","congruent",743.5,TRUE,"Neg","Neg","Neg_4"
"7",61,"Musician","congruent",931.9,TRUE,"Neg","Neg","Neg_5"
"7",62,"Musician","incongruent",952.2,FALSE,"Neg","Pos","Neg_6"
"7",63,"Musician","incongruent",823,TRUE,"Neg","Pos","Neg_7"
"7",64,"Musician","incongruent",837.5,TRUE,"Neg","Pos","Neg_8"
"8",1,NA,"congruent",782.2,TRUE,"Pos","Pos","Pos_1"
"8",2,NA,"congruent",857.4,TRUE,"Pos","Pos","Pos_2"
"8",3,NA,"incongruent",899.5,TRUE,"Pos","Neg","Pos_3"
"8",4,NA,"congruent",848.6,TRUE,"Pos","Pos","Pos_4"
"8",5,NA,"congruent",732.7,TRUE,"Pos","Pos","Pos_5"
"8",6,NA,"congruent",820.1,TRUE,"Pos","Pos","Pos_6"
"8",7,NA,"incongruent",823.4,TRUE,"Pos","Neg","Pos_7"
"8",8,NA,"incongruent",813.4,TRUE,"Pos","Neg","Pos_8"
"8",9,NA,"congruent",743.8,TRUE,"Neg","Neg","Neg_1"
"8",10,NA,"incongruent",821.8,TRUE,"Neg","Pos","Neg_2"
"8",11,NA,"congruent",858,TRUE,"Neg","Neg","Neg_3"
"8",12,NA,"incongruent",843.3,TRUE,"Neg","Pos","Neg_4"
"8",13,NA,"congruent",784.8,TRUE,"Neg","Neg","Neg_5"
"8",14,NA,"congruent",728.5,TRUE,"Neg","Neg","Neg_6"
"8",15,NA,"congruent",775.9,TRUE,"Neg","Neg","Neg_7"
"8",16,NA,"congruent",755.3,TRUE,"Neg","Neg","Neg_8"
"8",17,NA,"incongruent",835.8,TRUE,"Pos","Neg","Pos_1"
"8",18,NA,"incongruent",760.1,TRUE,"Pos","Neg","Pos_2"
"8",19,NA,"congruent",771.8,TRUE,"Pos","Pos","Pos_3"
"8",20,NA,"congruent",820.2,FALSE,"Pos","Pos","Pos_4"
"8",21,NA,"congruent",818.8,TRUE,"Pos","Pos","Pos_5"
"8",22,NA,"incongruent",783.4,FALSE,"Pos","Neg","Pos_6"
"8",23,NA,"congruent",780.4,TRUE,"Pos","Pos","Pos_7"
"8",24,NA,"incongruent",862,TRUE,"Pos","Neg","Pos_8"
"8",25,NA,"congruent",774.5,TRUE,"Neg","Neg","Neg_1"
"8",26,NA,"congruent",825.2,TRUE,"Neg","Neg","Neg_2"
"8",27,NA,"congruent",821,FALSE,"Neg","Neg","Neg_3"
"8",28,NA,"incongruent",811.7,TRUE,"Neg","Pos","Neg_4"
"8",29,NA,"congruent",836.2,TRUE,"Neg","Neg","Neg_5"
"8",30,NA,"congruent",854.4,TRUE,"Neg","Neg","Neg_6"
"8",31,NA,"congruent",758.8,TRUE,"Neg","Neg","Neg_7"
"8",32,NA,"incongruent",754.4,TRUE,"Neg","Pos","Neg_8"
"8",33,NA,"congruent",681.2,TRUE,"Pos","Pos","Pos_1"
"8",34,NA,"congruent",830.8,TRUE,"Pos","Pos","Pos_2"
"8",35,NA,"incongruent",816.2,TRUE,"Pos","Neg","Pos_3"
"8",36,NA,"incongruent",851,TRUE,"Pos","Neg","Pos_4"
"8",37,NA,"incongruent",824.3,TRUE,"Pos","Neg","Pos_5"
"8",38,NA,"congruent",748.9,TRUE,"Pos","Pos","Pos_6"
"8",39,NA,"congruent",838.1,TRUE,"Pos","Pos","Pos_7"
"8",40,NA,"congruent",861.7,TRUE,"Pos","Pos","Pos_8"
"8",41,NA,"congruent",801.1,TRUE,"Neg","Neg","Neg_1"
"8",42,NA,"congruent",889.6,TRUE,"Neg","Neg","Neg_2"
"8",43,NA,"incongruent",784.2,TRUE,"Neg","Pos","Neg_3"
"8",44,NA,"congruent",759.3,TRUE,"Neg","Neg","Neg_4"
"8",45,NA,"congruent",716.8,TRUE,"Neg","Neg","Neg_5"
"8",46,NA,"incongruent",802.4,TRUE,"Neg","Pos","Neg_6"
"8",47,NA,"congruent",759.3,TRUE,"Neg","Neg","Neg_7"
"8",48,NA,"incongruent",810.5,TRUE,"Neg","Pos","Neg_8"
"8",49,NA,"congruent",771.8,TRUE,"Pos","Pos","Pos_1"
"8",50,NA,"congruent",793.2,FALSE,"Pos","Pos","Pos_2"
"8",51,NA,"congruent",934.2,TRUE,"Pos","Pos","Pos_3"
"8",52,NA,"congruent",742.3,TRUE,"Pos","Pos","Pos_4"
"8",53,NA,"congruent",-759.9,TRUE,"Pos","Pos","Pos_5"
"8",54,NA,"incongruent",889.6,TRUE,"Pos","Neg","Pos_6"
"8",55,NA,"incongruent",805.9,TRUE,"Pos","Neg","Pos_7"
"8",56,NA,"incongruent",873.3,TRUE,"Pos","Neg","Pos_8"
"8",57,NA,"incongruent",NA,TRUE,"Neg","Pos","Neg_1"
"8",58,NA,"congruent",821.1,TRUE,"Neg","Neg","Neg_2"
"8",59,NA,"congruent",845.1,TRUE,"Neg","Neg","Neg_3"
"8",60,NA,"congruent",746.4,TRUE,"Neg","Neg","Neg_4"
"8",61,NA,"incongruent",777.4,TRUE,"Neg","Pos","Neg_5"
"8",62,NA,"incongruent",753.8,FALSE,"Neg","Pos","Neg_6"
"8",63,NA,"congruent",910.3,TRUE,"Neg","Neg","Neg_7"
"8",64,NA,"incongruent",816.2,TRUE,"Neg","Pos","Neg_8"
"9",1,"Non-musician","congruent",880.2,TRUE,"Pos","Pos","Pos_1"
"9",2,"Non-musician","congruent",870.1,TRUE,"Pos","Pos","Pos_2"
"9",3,"Non-musician","congruent",976.1,TRUE,"Pos","Pos","Pos_3"
"9",4,"Non-musician","incongruent",9521,TRUE,"Pos","Neg","Pos_4"
"9",5,"Non-musician","congruent",854.1,TRUE,"Pos","Pos","Pos_5"
"9",6,"Non-musician","congruent",943.7,FALSE,"Pos","Pos","Pos_6"
"9",7,"Non-musician","congruent",928.9,TRUE,"Pos","Pos","Pos_7"
"9",8,"Non-musician","incongruent",1100.3,TRUE,"Pos","Neg","Pos_8"
"9",9,"Non-musician","congruent",866.3,TRUE,"Neg","Neg","Neg_1"
"9",10,"Non-musician","incongruent",956.8,FALSE,"Neg","Pos","Neg_2"
"9",11,"Non-musician","congruent",944.7,TRUE,"Neg","Neg","Neg_3"
"9",12,"Non-musician","incongruent",905.1,FALSE,"Neg","Pos","Neg_4"
"9",13,"Non-musician","congruent",982.3,TRUE,"Neg","Neg","Neg_5"
"9",14,"Non-musician","incongruent",996.5,TRUE,"Neg","Pos","Neg_6"
"9",15,"Non-musician","incongruent",1008.9,TRUE,"Neg","Pos","Neg_7"
"9",16,"Non-musician","incongruent",901.4,FALSE,"Neg","Pos","Neg_8"
"9",17,"Non-musician","congruent",886.4,TRUE,"Pos","Pos","Pos_1"
"9",18,"Non-musician","incongruent",1035.8,TRUE,"Pos","Neg","Pos_2"
"9",19,"Non-musician","incongruent",1041.4,FALSE,"Pos","Neg","Pos_3"
"9",20,"Non-musician","congruent",887,TRUE,"Pos","Pos","Pos_4"
"9",21,"Non-musician","incongruent",907.8,TRUE,"Pos","Neg","Pos_5"
"9",22,"Non-musician","incongruent",989,TRUE,"Pos","Neg","Pos_6"
"9",23,"Non-musician","incongruent",938.1,TRUE,"Pos","Neg","Pos_7"
"9",24,"Non-musician","incongruent",965.3,TRUE,"Pos","Neg","Pos_8"
"9",25,"Non-musician","congruent",996.3,TRUE,"Neg","Neg","Neg_1"
"9",26,"Non-musician","congruent",887.5,TRUE,"Neg","Neg","Neg_2"
"9",27,"Non-musician","congruent",943,TRUE,"Neg","Neg","Neg_3"
"9",28,"Non-musician","incongruent",977.4,TRUE,"Neg","Pos","Neg_4"
"9",29,"Non-musician","incongruent",1024.7,TRUE,"Neg","Pos","Neg_5"
"9",30,"Non-musician","congruent",974.7,TRUE,"Neg","Neg","Neg_6"
"9",31,"Non-musician","congruent",829.5,TRUE,"Neg","Neg","Neg_7"
"9",32,"Nonmusician","incongruent",913.2,FALSE,"Neg","Pos","Neg_8"
"9",33,"Non-musician","incongruent",937.1,TRUE,"Pos","Neg","Pos_1"
"9",34,"Non-musician","congruent",970.3,TRUE,"Pos","Pos","Pos_2"
"9",35,"Non-musician","congruent",962,FALSE,"Pos","Pos","Pos_3"
"9",36,"Non-musician","congruent",921.8,FALSE,"Pos","Pos","Pos_4"
"9",37,"Non-musician","incongruent",2219.77198286913,TRUE,"Pos","Neg","Pos_5"
"9",38,"Non-musician","incongruent",848.7,FALSE,"Pos","Neg","Pos_6"
"9",39,"Non-musician","incongruent",897.7,TRUE,"Pos","Neg","Pos_7"
"9",40,"Non-musician","incongruent",1059,TRUE,"Pos","Neg","Pos_8"
"9",41,"Non-musician","incongruent",937.1,TRUE,"Neg","Pos","Neg_1"
"9",42,"Non-musician","incongruent",922.3,TRUE,"Neg","Pos","Neg_2"
"9",43,"Non-musician","congruent",958.2,TRUE,"Neg","Neg","Neg_3"
"9",44,"Non-musician","incongruent",948.6,TRUE,"Neg","Pos","Neg_4"
"9",45,"Non-musician","incongruent",957.1,TRUE,"Neg","Pos","Neg_5"
"9",46,"Non-musician","incongruent",975.7,TRUE,"Neg","Pos","Neg_6"
"9",47,"Non-musician","incongruent",1048,TRUE,"Neg","Pos","Neg_7"
"9",48,"Non-musician","incongruent",1032.2,FALSE,"Neg","Pos","Neg_8"
"9",49,"Non-musician","incongruent",8805,TRUE,"Pos","Neg","Pos_1"
"9",50,"Non-musician","congruent",885.7,TRUE,"Pos","Pos","Pos_2"
"9",51,"Non-musician","congruent",851.4,TRUE,"Pos","Pos","Pos_3"
"9",52,"Non-musician","incongruent",926.7,TRUE,"Pos","Neg","Pos_4"
"9",53,"Non-musician","congruent",804,TRUE,"Pos","Pos","Pos_5"
"9",54,"Non-musician","incongruent",2800.52479205187,FALSE,"Pos","Neg","Pos_6"
"9",55,"Non-musician","congruent",951.2,TRUE,"Pos","Pos","Pos_7"
"9",56,"Non-musician","congruent",1008.6,TRUE,"Pos","Pos","Pos_8"
"9",57,"Non-musician","incongruent",890.1,TRUE,"Neg","Pos","Neg_1"
"9",58,"Non-musician","congruent",949.3,TRUE,"Neg","Neg","Neg_2"
"9",59,"Non-musician","congruent",NA,TRUE,"Neg","Neg","Neg_3"
"9",60,"Non-musician","congruent",931.9,TRUE,"Neg","Neg","Neg_4"
"9",61,"Non-musician","congruent",983.2,TRUE,"Neg","Neg","Neg_5"
"9",62,"Non-musician","incongruent",1048.6,TRUE,"Neg","Pos","Neg_6"
"9",63,"Non-musician","incongruent",928.1,TRUE,"Neg","Pos","Neg_7"
"9",64,"Non-musician","incongruent",1003.8,TRUE,"Neg","Pos","Neg_8"
"10",1,"Musician","congruent",872.5,TRUE,"Pos","Pos","Pos_1"
"10",2,"Musician","incongruent",910.8,TRUE,"Pos","Neg","Pos_2"
"10",3,"Musician","congruent",NA,TRUE,"Pos","Pos","Pos_3"
"10",4,"Musician","congruent",795.6,FALSE,"Pos","Pos","Pos_4"
"10",5,"Musician","incongruent",783.2,TRUE,"Pos","Neg","Pos_5"
"10",6,"Musician","incongruent",810.9,TRUE,"Pos","Neg","Pos_6"
"10",7,"Musician","congruent",811.5,TRUE,"Pos","Pos","Pos_7"
"10",8,"Musician","congruent",727.9,TRUE,"Pos","Pos","Pos_8"
"10",9,"Musician","incongruent",820,TRUE,"Neg","Pos","Neg_1"
"10",10,"Musician","congruent",798.4,TRUE,"Neg","Neg","Neg_2"
"10",11,"Musician","congruent",764,TRUE,"Neg","Neg","Neg_3"
"10",12,"Musician","congruent",827.9,TRUE,"Neg","Neg","Neg_4"
"10",13,"Musician","incongruent",780.7,TRUE,"Neg","Pos","Neg_5"
"10",14,"Musician","incongruent",864.3,TRUE,"Neg","Pos","Neg_6"
"10",15,"Musician","congruent",775.3,TRUE,"Neg","Neg","Neg_7"
"10",16,"Musician","congruent",815.8,TRUE,"Neg","Neg","Neg_8"
"10",17,"Musician","congruent",824.7,FALSE,"Pos","Pos","Pos_1"
"10",18,"Musician","congruent",691.2,TRUE,"Pos","Pos","Pos_2"
"10",19,"Musician","congruent",840.6,TRUE,"Pos","Pos","Pos_3"
"10",20,"Musician","congruent",2506.37554912828,TRUE,"Pos","Pos","Pos_4"
"10",21,"Musician","congruent",800.5,TRUE,"Pos","Pos","Pos_5"
"10",22,"Musician","incongruent",865.6,TRUE,"Pos","Neg","Pos_6"
"10",23,"Musician","congruent",769.5,TRUE,"Pos","Pos","Pos_7"
"10",24,"Musician","incongruent",791.1,TRUE,"Pos","Neg","Pos_8"
"10",25,"Musician","congruent",767.3,TRUE,"Neg","Neg","Neg_1"
"10",26,"Musician","incongruent",831.6,TRUE,"Neg","Pos","Neg_2"
"10",27,"Musician","congruent",723.6,TRUE,"Neg","Neg","Neg_3"
"10",28,"Musician","congruent",803,FALSE,"Neg","Neg","Neg_4"
"10",29,"Musician","congruent",692.7,TRUE,"Neg","Neg","Neg_5"
"10",30,"Musician","congruent",820.5,TRUE,"Neg","Neg","Neg_6"
"10",31,"Musician","congruent",889,TRUE,"Neg","Neg","Neg_7"
"10",32,"Musician","incongruent",841.2,TRUE,"Neg","Pos","Neg_8"
"10",33,"Musician","incongruent",828.7,TRUE,"Pos","Neg","Pos_1"
"10",34,"Musician","congruent",829.9,TRUE,"Pos","Pos","Pos_2"
"10",35,"Musician","congruent",797.8,TRUE,"Pos","Pos","Pos_3"
"10",36,"Musician","incongruent",839.6,TRUE,"Pos","Neg","Pos_4"
"10",37,"Musician","congruent",759,TRUE,"Pos","Pos","Pos_5"
"10",38,"Musician","incongruent",818.2,TRUE,"Pos","Neg","Pos_6"
"10",39,"Musician","incongruent",739.8,TRUE,"Pos","Neg","Pos_7"
"10",40,"Musician","congruent",828.1,TRUE,"Pos","Pos","Pos_8"
"10",41,"Musician","incongruent",874.2,FALSE,"Neg","Pos","Neg_1"
"10",42,"Musician","congruent",839.1,TRUE,"Neg","Neg","Neg_2"
"10",43,"Musician","incongruent",800.1,TRUE,"Neg","Pos","Neg_3"
"10",44,"Musician","incongruent",867,TRUE,"Neg","Pos","Neg_4"
"10",45,"Musician","incongruent",713.3,TRUE,"Neg","Pos","Neg_5"
"10",46,"Musician","incongruent",800.4,TRUE,"Neg","Pos","Neg_6"
"10",47,"Musician","incongruent",797.7,FALSE,"Neg","Pos","Neg_7"
"10",48,"Musician","congruent",823.3,TRUE,"Neg","Neg","Neg_8"
"10",49,"Musician","incongruent",730.3,TRUE,"Pos","Neg","Pos_1"
"10",50,"Musician","congruent",755.6,TRUE,"Pos","Pos","Pos_2"
"10",51,"Musician","congruent",823.6,TRUE,"Pos","Pos","Pos_3"
"10",52,"Musician","incongruent",736,FALSE,"Pos","Neg","Pos_4"
"10",53,"Musician","congruent",870.7,FALSE,"Pos","Pos","Pos_5"
"10",54,"Musician","incongruent",860.8,TRUE,"Pos","Neg","Pos_6"
"10",55,"Musician","incongruent",810.1,TRUE,"Pos","Neg","Pos_7"
"10",56,"Musician","incongruent",877.5,TRUE,"Pos","Neg","Pos_8"
"10",57,"Musician","incongruent",747.9,FALSE,"Neg","Pos","Neg_1"
"10",58,"Musician","incongruent",980.7,TRUE,"Neg","Pos","Neg_2"
"10",59,"Musician","congruent",893.6,TRUE,"Neg","Neg","Neg_3"
"10",60,"Musician","congruent",837.8,TRUE,"Neg","Neg","Neg_4"
"10",61,"Musician","incongruent",754.7,TRUE,"Neg","Pos","Neg_5"
"10",62,"Musician","incongruent",1869.75182918832,TRUE,"Neg","Pos","Neg_6"
"10",63,"Musician","congruent",810.6,TRUE,"Neg","Neg","Neg_7"
"10",64,"Musician","incongruent",896.4,TRUE,"Neg","Pos","Neg_8"
"11",1,"Non-musician","incongruent",852.2,TRUE,"Pos","Neg","Pos_1"
"11",2,"Non-musician","incongruent",966.6,TRUE,"Pos","Neg","Pos_2"
"11",3,"Non-musician","incongruent",808,TRUE,"Pos","Neg","Pos_3"
"11",4,"Non-musician","congruent",925.7,TRUE,"Pos","Pos","Pos_4"
"11",5,"Non-musician","congruent",858.3,TRUE,"Pos","Pos","Pos_5"
"11",6,"Non-musician","congruent",932.5,TRUE,"Pos","Pos","Pos_6"
"11",7,"Non-musician","incongruent",NA,FALSE,"Pos","Neg","Pos_7"
"11",8,"Non-musician","incongruent",1762.61579431593,TRUE,"Pos","Neg","Pos_8"
"11",9,"Non-musician","congruent",861,TRUE,"Neg","Neg","Neg_1"
"11",10,"Non-musician","congruent",823.3,FALSE,"Neg","Neg","Neg_2"
"11",11,"Non-musician","incongruent",997.7,TRUE,"Neg","Pos","Neg_3"
"11",12,"Non-musician","incongruent",885.9,TRUE,"Neg","Pos","Neg_4"
"11",13,"Non-musician","congruent",901.1,TRUE,"Neg","Neg","Neg_5"
"11",14,"Non-musician","incongruent",939.3,TRUE,"Neg","Pos","Neg_6"
"11",15,"Non-musician","incongruent",936,TRUE,"Neg","Pos","Neg_7"
"11",16,"Non-musician","congruent",814.9,TRUE,"Neg","Neg","Neg_8"
"11",17,"Non-musician","congruent",897,TRUE,"Pos","Pos","Pos_1"
"11",18,"Non-musician","congruent",887.9,TRUE,"Pos","Pos","Pos_2"
"11",19,"Non-musician","congruent",917.1,TRUE,"Pos","Pos","Pos_3"
"11",20,"Non-musician","incongruent",977.4,TRUE,"Pos","Neg","Pos_4"
"11",21,"Non-musician","incongruent",906.7,FALSE,"Pos","Neg","Pos_5"
"11",22,"Non-musician","congruent",946.1,TRUE,"Pos","Pos","Pos_6"
"11",23,"Non-musician","congruent",834.5,TRUE,"Pos","Pos","Pos_7"
"11",24,"Non-musician","congruent",847.8,TRUE,"Pos","Pos","Pos_8"
"11",25,"Non-musician","incongruent",NA,TRUE,"Neg","Pos","Neg_1"
"11",26,"Non-musician","incongruent",965.9,TRUE,"Neg","Pos","Neg_2"
"11",27,"Non-musician","incongruent",950.9,TRUE,"Neg","Pos","Neg_3"
"11",28,"Non-musician","incongruent",871.4,FALSE,"Neg","Pos","Neg_4"
"11",29,"Non-musician","incongruent",981,TRUE,"Neg","Pos","Neg_5"
"11",30,"Non-musician","congruent",942.5,TRUE,"Neg","Neg","Neg_6"
"11",31,"Non-musician","congruent",890.8,TRUE,"Neg","Neg","Neg_7"
"11",32,"Non-musician","incongruent",923.6,FALSE,"Neg","Pos","Neg_8"
"11",33,"Non-musician","congruent",831.5,TRUE,"Pos","Pos","Pos_1"
"11",34,"Non-musician","incongruent",1051.2,TRUE,"Pos","Neg","Pos_2"
"11",35,"Non-musician","incongruent",903.4,TRUE,"Pos","Neg","Pos_3"
"11",36,"Non-musician","incongruent",929.9,TRUE,"Pos","Neg","Pos_4"
"11",37,"Non-musician","congruent",865.2,FALSE,"Pos","Pos","Pos_5"
"11",38,"Non-musician","congruent",887.5,TRUE,"Pos","Pos","Pos_6"
"11",39,"Non-musician","incongruent",937.6,TRUE,"Pos","Neg","Pos_7"
"11",40,"Non-musician","congruent",931.3,TRUE,"Pos","Pos","Pos_8"
"11",41,"Non-musician","incongruent",887.4,TRUE,"Neg","Pos","Neg_1"
"11",42,"Non-musician","congruent",850.6,TRUE,"Neg","Neg","Neg_2"
"11",43,"Non-musician","incongruent",913,TRUE,"Neg","Pos","Neg_3"
"11",44,"Non-musician","congruent",829.4,TRUE,"Neg","Neg","Neg_4"
"11",45,"Non-musician","congruent",853.5,TRUE,"Neg","Neg","Neg_5"
"11",46,"Non-musician","incongruent",960,TRUE,"Neg","Pos","Neg_6"
"11",47,"Non-musician","incongruent",973,TRUE,"Neg","Pos","Neg_7"
"11",48,"Non-musician","congruent",900.6,TRUE,"Neg","Neg","Neg_8"
"11",49,"Non-musician","congruent",953.8,TRUE,"Pos","Pos","Pos_1"
"11",50,"Non-musician","incongrunet",968.2,FALSE,"Pos","Neg","Pos_2"
"11",51,"Non-musician","congruent",946.9,TRUE,"Pos","Pos","Pos_3"
"11",52,"Non-musician","incongruent",1040.4,TRUE,"Pos","Neg","Pos_4"
"11",53,"Non-musician","incongruent",913.9,TRUE,"Pos","Neg","Pos_5"
"11",54,"Non-musician","congruent",889,TRUE,"Pos","Pos","Pos_6"
"11",55,"Non-musician","incongruent",925.3,TRUE,"Pos","Neg","Pos_7"
"11",56,"Non-musician","incongruent",1012.1,TRUE,"Pos","Neg","Pos_8"
"11",57,"Non-musician","incongruent",953.4,TRUE,"Neg","Pos","Neg_1"
"11",58,"Non-musician","congruent",845.8,TRUE,"Neg","Neg","Neg_2"
"11",59,"Non-musician","incongruent",877.6,FALSE,"Neg","Pos","Neg_3"
"11",60,"Non-musician","congruent",806.8,TRUE,"Neg","Neg","Neg_4"
"11",61,"Non-musician","congruent",909.3,TRUE,"Neg","Neg","Neg_5"
"11",62,"Non-musician","congruent",873.4,TRUE,"Neg","Neg","Neg_6"
"11",63,"Non-musician","incongruent",995.4,TRUE,"Neg","Pos","Neg_7"
"11",64,"Non-musician","congruent",868.8,TRUE,"Neg","Neg","Neg_8"
"12",1,"Non-musician","congruent",927.8,TRUE,"Pos","Pos","Pos_1"
"12",2,"Nonmusician","incongruent",959.3,TRUE,"Pos","Neg","Pos_2"
"12",3,"Non-musician","incongruent",920,TRUE,"Pos","Neg","Pos_3"
"12",4,"Non-musician","congruent",836.6,TRUE,"Pos","Pos","Pos_4"
"12",5,"Non-musician","congruent",926.6,TRUE,"Pos","Pos","Pos_5"
"12",6,"Non-musician","congruent",975.2,TRUE,"Pos","Pos","Pos_6"
"12",7,"Non-musician","congruent",931.8,TRUE,"Pos","Pos","Pos_7"
"12",8,"Non-musician","congruent",939.6,FALSE,"Pos","Pos","Pos_8"
"12",9,"Non-musician","congruent",962.3,TRUE,"Neg","Neg","Neg_1"
"12",10,"Non-musician","incongruent",1015.8,FALSE,"Neg","Pos","Neg_2"
"12",11,"Non-musician","congruent",927.6,FALSE,"Neg","Neg","Neg_3"
"12",12,"Non-musician","incongruent",991.2,TRUE,"Neg","Pos","Neg_4"
"12",13,"Non-musician","congruent",1013.1,TRUE,"Neg","Neg","Neg_5"
"12",14,"Non-musician","congruent",932.2,FALSE,"Neg","Neg","Neg_6"
"12",15,"Non-musician","congruent",968.8,TRUE,"Neg","Neg","Neg_7"
"12",16,"Non-musician","incongruent",1048.8,TRUE,"Neg","Pos","Neg_8"
"12",17,"Non-musician","congruent",958.8,TRUE,"Pos","Pos","Pos_1"
"12",18,"Non-musician","congruent",886.4,TRUE,"Pos","Pos","Pos_2"
"12",19,"Non-musician","congruent",NA,TRUE,"Pos","Pos","Pos_3"
"12",20,"Non-musician","incongruent",897.5,TRUE,"Pos","Neg","Pos_4"
"12",21,"Non-musician","congruent",919.8,TRUE,"Pos","Pos","Pos_5"
"12",22,"Non-musician","congruent",887.7,TRUE,"Pos","Pos","Pos_6"
"12",23,"Non-musician","incongruent",912.5,TRUE,"Pos","Neg","Pos_7"
"12",24,"Non-musician","incongruent",998.8,FALSE,"Pos","Neg","Pos_8"
"12",25,"Non-musician","incongruent",961.6,TRUE,"Neg","Pos","Neg_1"
"12",26,"Non-musician","congruent",968.9,TRUE,"Neg","Neg","Neg_2"
"12",27,"Non-musician","incongrunet",1049.4,FALSE,"Neg","Pos","Neg_3"
"12",28,"Non-musician","congruent",840.8,TRUE,"Neg","Neg","Neg_4"
"12",29,"Non-musician","incongruent",929.5,TRUE,"Neg","Pos","Neg_5"
"12",30,"Non-musician","congruent",979.3,TRUE,"Neg","Neg","Neg_6"
"12",31,"Non-musician","congruent",1013.8,TRUE,"Neg","Neg","Neg_7"
"12",32,"Non-musician","incongruent",937.9,TRUE,"Neg","Pos","Neg_8"
"12",33,"Non-musician","incongruent",885.3,TRUE,"Pos","Neg","Pos_1"
"12",34,"Non-musician","incongruent",877.3,TRUE,"Pos","Neg","Pos_2"
"12",35,"Non-musician","incongruent",922.1,TRUE,"Pos","Neg","Pos_3"
"12",36,"Non-musician","congruent",961.5,TRUE,"Pos","Pos","Pos_4"
"12",37,"Non-musician","incongruent",850.1,TRUE,"Pos","Neg","Pos_5"
"12",38,"Non-musician","congruent",1042.1,FALSE,"Pos","Pos","Pos_6"
"12",39,"Non-musician","congruent",922.4,TRUE,"Pos","Pos","Pos_7"
"12",40,"Non-musician","congruent",886,TRUE,"Pos","Pos","Pos_8"
"12",41,"Non-musician","incongruent",922.4,TRUE,"Neg","Pos","Neg_1"
"12",42,"Non-musician","incongruent",976.4,FALSE,"Neg","Pos","Neg_2"
"12",43,"Non-musician","incongruent",941.2,TRUE,"Neg","Pos","Neg_3"
"12",44,"Non-musician","congruent",975,FALSE,"Neg","Neg","Neg_4"
"12",45,"Non-musician","incongruent",985.1,TRUE,"Neg","Pos","Neg_5"
"12",46,"Non-musician","incongruent",966.6,FALSE,"Neg","Pos","Neg_6"
"12",47,"Non-musician","incongruent",905.3,TRUE,"Neg","Pos","Neg_7"
"12",48,"Nonmusician","incongruent",1029.1,FALSE,"Neg","Pos","Neg_8"
"12",49,"Non-musician","incongruent",903.3,TRUE,"Pos","Neg","Pos_1"
"12",50,"Non-musician","incongruent",969.9,TRUE,"Pos","Neg","Pos_2"
"12",51,"Non-musician","incongruent",971.6,TRUE,"Pos","Neg","Pos_3"
"12",52,"Non-musician","incongruent",1003.6,FALSE,"Pos","Neg","Pos_4"
"12",53,"Non-musician","congruent",919.1,TRUE,"Pos","Pos","Pos_5"
"12",54,"Non-musician","incongruent",930.8,TRUE,"Pos","Neg","Pos_6"
"12",55,"Non-musician","incongruent",986,TRUE,"Pos","Neg","Pos_7"
"12",56,"Non-musician","congruent",951.8,TRUE,"Pos","Pos","Pos_8"
"12",57,"Non-musician","incongruent",1021.7,TRUE,"Neg","Pos","Neg_1"
"12",58,"Non-musician","incongruent",932.4,TRUE,"Neg","Pos","Neg_2"
"12",59,"Non-musician","incongruent",995.3,TRUE,"Neg","Pos","Neg_3"
"12",60,"Non-musician","incongruent",929.7,TRUE,"Neg","Pos","Neg_4"
"12",61,"Non-musician","incongruent",1052.2,FALSE,"Neg","Pos","Neg_5"
"12",62,"Non-musician","incongruent",990.1,TRUE,"Neg","Pos","Neg_6"
"12",63,"Non-musician","incongruent",865.5,TRUE,"Neg","Pos","Neg_7"
"12",64,"Non-musician","incongruent",983.9,TRUE,"Neg","Pos","Neg_8"
"13",1,"Non-musician","congruent",701.5,TRUE,"Pos","Pos","Pos_1"
"13",2,"Non-musician","congruent",877.6,TRUE,"Pos","Pos","Pos_2"
"13",3,"Non-musician","congruent",782.8,TRUE,"Pos","Pos","Pos_3"
"13",4,"Non-musician","incongruent",901.4,TRUE,"Pos","Neg","Pos_4"
"13",5,"Non-musician","congruent",742.3,FALSE,"Pos","Pos","Pos_5"
"13",6,"Non-musician","incongruent",917.2,TRUE,"Pos","Neg","Pos_6"
"13",7,"Non-musician","incongruent",847.3,TRUE,"Pos","Neg","Pos_7"
"13",8,"Non-musician","congruent",834,TRUE,"Pos","Pos","Pos_8"
"13",9,"Non-musician","congruent",779.1,TRUE,"Neg","Neg","Neg_1"
"13",10,"Non-musician","incongruent",765.5,TRUE,"Neg","Pos","Neg_2"
"13",11,"Non-musician","congruent",823.7,TRUE,"Neg","Neg","Neg_3"
"13",12,"Non-musician","congruent",770,TRUE,"Neg","Neg","Neg_4"
"13",13,"Non-musician","congruent",771.7,TRUE,"Neg","Neg","Neg_5"
"13",14,"Non-musician","congruent",766.6,TRUE,"Neg","Neg","Neg_6"
"13",15,"Non-musician","congruent",804.6,TRUE,"Neg","Neg","Neg_7"
"13",16,"Non-musician","incongruent",843.6,TRUE,"Neg","Pos","Neg_8"
"13",17,"Non-musician","congruent",770.6,TRUE,"Pos","Pos","Pos_1"
"13",18,"Non-musician","incongruent",847.8,FALSE,"Pos","Neg","Pos_2"
"13",19,"Non-musician","congruent",908.8,TRUE,"Pos","Pos","Pos_3"
"13",20,"Non-musician","congruent",741.8,TRUE,"Pos","Pos","Pos_4"
"13",21,"Non-musician","incongruent",887.6,FALSE,"Pos","Neg","Pos_5"
"13",22,"Non-musician","incongruent",800.4,TRUE,"Pos","Neg","Pos_6"
"13",23,"Non-musician","congruent",861.2,FALSE,"Pos","Pos","Pos_7"
"13",24,"Non-musician","incongruent",844.6,FALSE,"Pos","Neg","Pos_8"
"13",25,"Non-musician","congruent",779.7,TRUE,"Neg","Neg","Neg_1"
"13",26,"Non-musician","incongruent",823.5,TRUE,"Neg","Pos","Neg_2"
"13",27,"Non-musician","incongruent",NA,TRUE,"Neg","Pos","Neg_3"
"13",28,"Non-musician","congruent",755.7,TRUE,"Neg","Neg","Neg_4"
"13",29,"Non-musician","congruent",773.6,TRUE,"Neg","Neg","Neg_5"
"13",30,"Non-musician","congruent",817.7,TRUE,"Neg","Neg","Neg_6"
"13",31,"Non-musician","congruent",783.2,FALSE,"Neg","Neg","Neg_7"
"13",32,"Non-musician","congruent",864.6,FALSE,"Neg","Neg","Neg_8"
"13",33,"Non-musician","congruent",789.4,TRUE,"Pos","Pos","Pos_1"
"13",34,"Non-musician","congruent",NA,TRUE,"Pos","Pos","Pos_2"
"13",35,"Non-musician","congruent",971.3,TRUE,"Pos","Pos","Pos_3"
"13",36,"Non-musician","congruent",7670,FALSE,"Pos","Pos","Pos_4"
"13",37,"Non-musician","incongruent",700.8,TRUE,"Pos","Neg","Pos_5"
"13",38,"Non-musician","incongruent",840.5,TRUE,"Pos","Neg","Pos_6"
"13",39,"Non-musician","congruent",729.7,TRUE,"Pos","Pos","Pos_7"
"13",40,"Non-musician","incongruent",900.8,TRUE,"Pos","Neg","Pos_8"
"13",41,"Non-musician","incongruent",885.9,FALSE,"Neg","Pos","Neg_1"
"13",42,"Non-musician","congruent",729.2,TRUE,"Neg","Neg","Neg_2"
"13",43,"Non-musician","incongruent",824.4,TRUE,"Neg","Pos","Neg_3"
"13",44,"Non-musician","incongruent",870.9,TRUE,"Neg","Pos","Neg_4"
"13",45,"Non-musician","incongruent",856.2,FALSE,"Neg","Pos","Neg_5"
"13",46,"Non-musician","incongruent",884.4,FALSE,"Neg","Pos","Neg_6"
"13",47,"Non-musician","congruent",801.5,TRUE,"Neg","Neg","Neg_7"
"13",48,"Non-musician","congruent",847.3,FALSE,"Neg","Neg","Neg_8"
"13",49,"Non-musician","incongruent",818.4,TRUE,"Pos","Neg","Pos_1"
"13",50,"Non-musician","congruent",865.5,FALSE,"Pos","Pos","Pos_2"
"13",51,"Non-musician","congruent",743.2,FALSE,"Pos","Pos","Pos_3"
"13",52,"Non-musician","congruent",772.9,TRUE,"Pos","Pos","Pos_4"
"13",53,"Non-musician","congruent",835.4,TRUE,"Pos","Pos","Pos_5"
"13",54,"Non-musician","congruent",837.1,FALSE,"Pos","Pos","Pos_6"
"13",55,"Non-musician","incongruent",865.3,TRUE,"Pos","Neg","Pos_7"
"13",56,"Non-musician","congruent",792.1,TRUE,"Pos","Pos","Pos_8"
"13",57,"Non-musician","congruent",739,TRUE,"Neg","Neg","Neg_1"
"13",58,"Non-musician","congruent",776,TRUE,"Neg","Neg","Neg_2"
"13",59,"Non-musician","incongruent",864.3,TRUE,"Neg","Pos","Neg_3"
"13",60,"Non-musician","congruent",756.7,TRUE,"Neg","Neg","Neg_4"
"13",61,"Non-musician","incongruent",840.9,TRUE,"Neg","Pos","Neg_5"
"13",62,"Non-musician","congruent",823.2,TRUE,"Neg","Neg","Neg_6"
"13",63,"Non-musician","incongruent",836.1,TRUE,"Neg","Pos","Neg_7"
"13",64,"Non-musician","congruent",12.0187571342103,TRUE,"Neg","Neg","Neg_8"
"14",1,"Non-musician","incongruent",909.7,TRUE,"Pos","Neg","Pos_1"
"14",2,"Non-musician","incongruent",889.5,FALSE,"Pos","Neg","Pos_2"
"14",3,"Non-musician","incongruent",788.5,TRUE,"Pos","Neg","Pos_3"
"14",4,"Non-musician","incongruent",931.2,FALSE,"Pos","Neg","Pos_4"
"14",5,"Non-musician","incongruent",924.8,FALSE,"Pos","Neg","Pos_5"
"14",6,"Non-musician","incongruent",886.2,TRUE,"Pos","Neg","Pos_6"
"14",7,"Non-musician","congruent",882.3,TRUE,"Pos","Pos","Pos_7"
"14",8,"Non-musician","incongruent",962.3,TRUE,"Pos","Neg","Pos_8"
"14",9,"Non-musician","congruent",896.7,TRUE,"Neg","Neg","Neg_1"
"14",10,"Non-musician","congruent",929.7,TRUE,"Neg","Neg","Neg_2"
"14",11,"Non-musician","incongruent",845.7,FALSE,"Neg","Pos","Neg_3"
"14",12,"Non-musician","incongruent",827.7,TRUE,"Neg","Pos","Neg_4"
"14",13,"Non-musician","incongruent",958.9,TRUE,"Neg","Pos","Neg_5"
"14",14,"Non-musician","incongruent",827.6,TRUE,"Neg","Pos","Neg_6"
"14",15,"Non-musician","incongruent",958.8,FALSE,"Neg","Pos","Neg_7"
"14",16,"Nonmusician","congruent",797.1,TRUE,"Neg","Neg","Neg_8"
"14",17,"Non-musician","incongruent",885.6,TRUE,"Pos","Neg","Pos_1"
"14",18,"Non-musician","congruent",829.2,TRUE,"Pos","Pos","Pos_2"
"14",19,"Non-musician","congruent",855,TRUE,"Pos","Pos","Pos_3"
"14",20,"Nonmusician","incongruent",906.3,TRUE,"Pos","Neg","Pos_4"
"14",21,"Non-musician","congruent",865.9,FALSE,"Pos","Pos","Pos_5"
"14",22,"Non-musician","incongruent",927.8,FALSE,"Pos","Neg","Pos_6"
"14",23,"Non-musician","incongruent",760,TRUE,"Pos","Neg","Pos_7"
"14",24,"Non-musician","congruent",750.9,TRUE,"Pos","Pos","Pos_8"
"14",25,"Non-musician","incongruent",796.7,TRUE,"Neg","Pos","Neg_1"
"14",26,"Non-musician","congruent",834.1,TRUE,"Neg","Neg","Neg_2"
"14",27,"Non-musician","congruent",854.6,FALSE,"Neg","Neg","Neg_3"
"14",28,"Non-musician","congruent",789.5,TRUE,"Neg","Neg","Neg_4"
"14",29,"Non-musician","congruent",904.4,TRUE,"Neg","Neg","Neg_5"
"14",30,"Non-musician","congruent",910.1,TRUE,"Neg","Neg","Neg_6"
"14",31,"Non-musician","incongruent",825.5,FALSE,"Neg","Pos","Neg_7"
"14",32,"Non-musician","congruent",907.7,TRUE,"Neg","Neg","Neg_8"
"14",33,"Non-musician","congruent",862.1,TRUE,"Pos","Pos","Pos_1"
"14",34,"Non-musician","congruent",840.1,TRUE,"Pos","Pos","Pos_2"
"14",35,"Non-musician","congruent",808.4,TRUE,"Pos","Pos","Pos_3"
"14",36,"Non-musician","congruent",753.7,FALSE,"Pos","Pos","Pos_4"
"14",37,"Non-musician","incongruent",915.3,TRUE,"Pos","Neg","Pos_5"
"14",38,"Non-musician","incongruent",922.5,TRUE,"Pos","Neg","Pos_6"
"14",39,"Non-musician","congruent",848.9,TRUE,"Pos","Pos","Pos_7"
"14",40,"Non-musician","congruent",862.4,TRUE,"Pos","Pos","Pos_8"
"14",41,"Non-musician","congruent",796,TRUE,"Neg","Neg","Neg_1"
"14",42,"Non-musician","incongruent",914.6,TRUE,"Neg","Pos","Neg_2"
"14",43,"Non-musician","incongruent",842.1,TRUE,"Neg","Pos","Neg_3"
"14",44,"Nonmusician","incongruent",798.2,TRUE,"Neg","Pos","Neg_4"
"14",45,"Non-musician","congruent",815.9,TRUE,"Neg","Neg","Neg_5"
"14",46,"Non-musician","congruent",796.2,TRUE,"Neg","Neg","Neg_6"
"14",47,"Non-musician","incongruent",831.6,TRUE,"Neg","Pos","Neg_7"
"14",48,"Non-musician","incongruent",908.1,TRUE,"Neg","Pos","Neg_8"
"14",49,"Non-musician","congruent",907.8,TRUE,"Pos","Pos","Pos_1"
"14",50,"Non-musician","congruent",787.7,FALSE,"Pos","Pos","Pos_2"
"14",51,"Non-musician","incongruent",801,FALSE,"Pos","Neg","Pos_3"
"14",52,"Non-musician","incongruent",791.9,FALSE,"Pos","Neg","Pos_4"
"14",53,"Non-musician","congruent",820.7,TRUE,"Pos","Pos","Pos_5"
"14",54,"Non-musician","incongruent",822.9,TRUE,"Pos","Neg","Pos_6"
"14",55,"Non-musician","congruent",821.3,TRUE,"Pos","Pos","Pos_7"
"14",56,"Non-musician","incongruent",907.6,FALSE,"Pos","Neg","Pos_8"
"14",57,"Non-musician","incongruent",936.8,TRUE,"Neg","Pos","Neg_1"
"14",58,"Non-musician","congruent",914.4,TRUE,"Neg","Neg","Neg_2"
"14",59,"Non-musician","incongruent",890.4,TRUE,"Neg","Pos","Neg_3"
"14",60,"Non-musician","congruent",826,TRUE,"Neg","Neg","Neg_4"
"14",61,"Non-musician","incongruent",859.8,FALSE,"Neg","Pos","Neg_5"
"14",62,"Non-musician","incongruent",1001.9,FALSE,"Neg","Pos","Neg_6"
"14",63,"Non-musician","congruent",878.7,TRUE,"Neg","Neg","Neg_7"
"14",64,"Non-musician","incongruent",808.2,TRUE,"Neg","Pos","Neg_8"
"15",1,"Non-musician","congruent",774.2,FALSE,"Pos","Pos","Pos_1"
"15",2,"Non-musician","incongruent",873,TRUE,"Pos","Neg","Pos_2"
"15",3,"Non-musician","congruent",935,TRUE,"Pos","Pos","Pos_3"
"15",4,"Non-musician","congruent",913.9,TRUE,"Pos","Pos","Pos_4"
"15",5,"Non-musician","incongruent",819.4,TRUE,"Pos","Neg","Pos_5"
"15",6,"Non-musician","congruent",895.3,TRUE,"Pos","Pos","Pos_6"
"15",7,"Non-musician","incongruent",905.1,TRUE,"Pos","Neg","Pos_7"
"15",8,"Non-musician","congruent",872.7,FALSE,"Pos","Pos","Pos_8"
"15",9,"Non-musician","incongruent",841.1,TRUE,"Neg","Pos","Neg_1"
"15",10,"Non-musician","incongruent",864.6,FALSE,"Neg","Pos","Neg_2"
"15",11,"Non-musician","congruent",814.1,TRUE,"Neg","Neg","Neg_3"
"15",12,"Non-musician","congruent",866.6,TRUE,"Neg","Neg","Neg_4"
"15",13,"Non-musician","congruent",890.3,TRUE,"Neg","Neg","Neg_5"
"15",14,"Non-musician","congruent",879.2,TRUE,"Neg","Neg","Neg_6"
"15",15,"Non-musician","incongruent",838.9,FALSE,"Neg","Pos","Neg_7"
"15",16,"Non-musician","congruent",744.3,TRUE,"Neg","Neg","Neg_8"
"15",17,"Non-musician","incongruent",888.8,TRUE,"Pos","Neg","Pos_1"
"15",18,"Non-musician","incongruent",835.5,TRUE,"Pos","Neg","Pos_2"
"15",19,"Non-musician","incongruent",967.5,TRUE,"Pos","Neg","Pos_3"
"15",20,"Non-musician","congruent",808.2,TRUE,"Pos","Pos","Pos_4"
"15",21,"Non-musician","incongruent",831.2,TRUE,"Pos","Neg","Pos_5"
"15",22,"Non-musician","congruent",771.1,FALSE,"Pos","Pos","Pos_6"
"15",23,"Non-musician","incongruent",866.4,FALSE,"Pos","Neg","Pos_7"
"15",24,"Non-musician","incongruent",933.6,FALSE,"Pos","Neg","Pos_8"
"15",25,"Non-musician","congruent",763.6,TRUE,"Neg","Neg","Neg_1"
"15",26,"Non-musician","congruent",823.1,TRUE,"Neg","Neg","Neg_2"
"15",27,"Non-musician","congruent",807.9,TRUE,"Neg","Neg","Neg_3"
"15",28,"Non-musician","incongruent",866.5,TRUE,"Neg","Pos","Neg_4"
"15",29,"Non-musician","congruent",893,TRUE,"Neg","Neg","Neg_5"
"15",30,"Non-musician","incongruent",827.5,TRUE,"Neg","Pos","Neg_6"
"15",31,"Non-musician","incongruent",836.1,TRUE,"Neg","Pos","Neg_7"
"15",32,"Non-musician","congruent",844.3,FALSE,"Neg","Neg","Neg_8"
"15",33,"Non-musician","congruent",846.4,TRUE,"Pos","Pos","Pos_1"
"15",34,"Non-musician","incongruent",791.9,TRUE,"Pos","Neg","Pos_2"
"15",35,"Non-musician","incongruent",8324,FALSE,"Pos","Neg","Pos_3"
"15",36,"Non-musician","incongruent",818.2,FALSE,"Pos","Neg","Pos_4"
"15",37,"Non-musician","incongruent",845,TRUE,"Pos","Neg","Pos_5"
"15",38,"Non-musician","congruent",787,TRUE,"Pos","Pos","Pos_6"
"15",39,"Non-musician","congruent",821.3,TRUE,"Pos","Pos","Pos_7"
"15",40,"Non-musician","congruent",759.7,TRUE,"Pos","Pos","Pos_8"
"15",41,"Non-musician","congruent",732.9,TRUE,"Neg","Neg","Neg_1"
"15",42,"Non-musician","congruent",844,TRUE,"Neg","Neg","Neg_2"
"15",43,"Non-musician","incongruent",802.7,TRUE,"Neg","Pos","Neg_3"
"15",44,"Non-musician","incongruent",856.3,TRUE,"Neg","Pos","Neg_4"
"15",45,"Non-musician","congruent",782.6,TRUE,"Neg","Neg","Neg_5"
"15",46,"Non-musician","incongruent",849.7,TRUE,"Neg","Pos","Neg_6"
"15",47,"Non-musician","incongruent",941.5,TRUE,"Neg","Pos","Neg_7"
"15",48,"Non-musician","incongruent",891.5,TRUE,"Neg","Pos","Neg_8"
"15",49,"Non-musician","congruent",841.4,TRUE,"Pos","Pos","Pos_1"
"15",50,"Non-musician","incongruent",906.2,TRUE,"Pos","Neg","Pos_2"
"15",51,"Non-musician","incongruent",884.9,TRUE,"Pos","Neg","Pos_3"
"15",52,"Non-musician","congruent",880.2,TRUE,"Pos","Pos","Pos_4"
"15",53,"Non-musician","congruent",845.8,TRUE,"Pos","Pos","Pos_5"
"15",54,"Non-musician","incongruent",841.6,TRUE,"Pos","Neg","Pos_6"
"15",55,"Non-musician","congruent",819.9,FALSE,"Pos","Pos","Pos_7"
"15",56,"Non-musician","congruent",861.1,TRUE,"Pos","Pos","Pos_8"
"15",57,"Non-musician","incongruent",982.5,TRUE,"Neg","Pos","Neg_1"
"15",58,"Non-musician","congruent",859.3,TRUE,"Neg","Neg","Neg_2"
"15",59,"Non-musician","congruent",915.3,TRUE,"Neg","Neg","Neg_3"
"15",60,"Non-musician","congruent",843.8,TRUE,"Neg","Neg","Neg_4"
"15",61,"Non-musician","incongruent",903.3,TRUE,"Neg","Pos","Neg_5"
"15",62,"Non-musician","congruent",749.3,TRUE,"Neg","Neg","Neg_6"
"15",63,"Non-musician","congruent",745.8,FALSE,"Neg","Neg","Neg_7"
"15",64,"Non-musician","incongruent",903.3,TRUE,"Neg","Pos","Neg_8"
"16",1,"Non-musician","congruent",846.2,TRUE,"Pos","Pos","Pos_1"
"16",2,"Non-musician","congruent",910.9,TRUE,"Pos","Pos","Pos_2"
"16",3,"Non-musician","congruent",882.8,TRUE,"Pos","Pos","Pos_3"
"16",4,"Non-musician","congruent",915.4,TRUE,"Pos","Pos","Pos_4"
"16",5,"Non-musician","incongruent",834.2,TRUE,"Pos","Neg","Pos_5"
"16",6,"Non-musician","incongruent",898.3,FALSE,"Pos","Neg","Pos_6"
"16",7,"Non-musician","congruent",847.1,TRUE,"Pos","Pos","Pos_7"
"16",8,"Non-musician","congruent",904.2,TRUE,"Pos","Pos","Pos_8"
"16",9,"Non-musician","incongruent",989.4,FALSE,"Neg","Pos","Neg_1"
"16",10,"Non-musician","incongruent",897.5,TRUE,"Neg","Pos","Neg_2"
"16",11,"Non-musician","congruent",947.6,TRUE,"Neg","Neg","Neg_3"
"16",12,"Non-musician","incongruent",880.6,TRUE,"Neg","Pos","Neg_4"
"16",13,"Non-musician","congruent",929.1,TRUE,"Neg","Neg","Neg_5"
"16",14,"Non-musician","incongruent",NA,TRUE,"Neg","Pos","Neg_6"
"16",15,"Non-musician","incongruent",806.5,FALSE,"Neg","Pos","Neg_7"
"16",16,"Non-musician","congruent",861.7,FALSE,"Neg","Neg","Neg_8"
"16",17,"Non-musician","incongruent",971.5,TRUE,"Pos","Neg","Pos_1"
"16",18,"Non-musician","incongruent",819.4,TRUE,"Pos","Neg","Pos_2"
"16",19,"Non-musician","incongruent",890.4,TRUE,"Pos","Neg","Pos_3"
"16",20,"Non-musician","incongruent",897,TRUE,"Pos","Neg","Pos_4"
"16",21,"Non-musician","incongruent",904.4,TRUE,"Pos","Neg","Pos_5"
"16",22,"Non-musician","incongruent",932.5,TRUE,"Pos","Neg","Pos_6"
"16",23,"Non-musician","congruent",818.6,TRUE,"Pos","Pos","Pos_7"
"16",24,"Non-musician","congruent",957.3,TRUE,"Pos","Pos","Pos_8"
"16",25,"Non-musician","congruent",771.2,TRUE,"Neg","Neg","Neg_1"
"16",26,"Non-musician","incongruent",938.5,FALSE,"Neg","Pos","Neg_2"
"16",27,"Non-musician","incongruent",873,FALSE,"Neg","Pos","Neg_3"
"16",28,"Non-musician","congruent",883.3,TRUE,"Neg","Neg","Neg_4"
"16",29,"Non-musician","incongruent",921,FALSE,"Neg","Pos","Neg_5"
"16",30,"Non-musician","incongruent",940.7,TRUE,"Neg","Pos","Neg_6"
"16",31,"Non-musician","congruent",825.2,TRUE,"Neg","Neg","Neg_7"
"16",32,"Non-musician","incongruent",854.4,TRUE,"Neg","Pos","Neg_8"
"16",33,"Non-musician","incongruent",980.9,TRUE,"Pos","Neg","Pos_1"
"16",34,"Non-musician","incongruent",873,TRUE,"Pos","Neg","Pos_2"
"16",35,"Non-musician","congruent",853.5,FALSE,"Pos","Pos","Pos_3"
"16",36,"Non-musician","congruent",830.8,TRUE,"Pos","Pos","Pos_4"
"16",37,"Non-musician","congruent",814.7,TRUE,"Pos","Pos","Pos_5"
"16",38,"Non-musician","incongruent",840.7,TRUE,"Pos","Neg","Pos_6"
"16",39,"Non-musician","incongruent",849.2,TRUE,"Pos","Neg","Pos_7"
"16",40,"Non-musician","incongruent",930.9,FALSE,"Pos","Neg","Pos_8"
"16",41,"Non-musician","congruent",857.9,TRUE,"Neg","Neg","Neg_1"
"16",42,"Non-musician","incongruent",1007.5,FALSE,"Neg","Pos","Neg_2"
"16",43,"Non-musician","congruent",879.9,TRUE,"Neg","Neg","Neg_3"
"16",44,"Non-musician","congruent",842.5,FALSE,"Neg","Neg","Neg_4"
"16",45,"Non-musician","incongruent",879.8,TRUE,"Neg","Pos","Neg_5"
"16",46,"Non-musician","congruent",893.5,TRUE,"Neg","Neg","Neg_6"
"16",47,"Non-musician","congruent",879.8,TRUE,"Neg","Neg","Neg_7"
"16",48,"Non-musician","congruent",894.4,TRUE,"Neg","Neg","Neg_8"
"16",49,"Non-musician","congruent",897.6,TRUE,"Pos","Pos","Pos_1"
"16",50,"Non-musician","incongruent",936.1,TRUE,"Pos","Neg","Pos_2"
"16",51,"Non-musician","congruent",857,TRUE,"Pos","Pos","Pos_3"
"16",52,"Non-musician","incongruent",952,TRUE,"Pos","Neg","Pos_4"
"16",53,"Non-musician","congruent",841.3,TRUE,"Pos","Pos","Pos_5"
"16",54,"Non-musician","congruent",890.6,FALSE,"Pos","Pos","Pos_6"
"16",55,"Non-musician","congruent",962.4,TRUE,"Pos","Pos","Pos_7"
"16",56,"Non-musician","incongruent",987.1,FALSE,"Pos","Neg","Pos_8"
"16",57,"Non-musician","congruent",895.9,TRUE,"Neg","Neg","Neg_1"
"16",58,"Non-musician","congruent",838,TRUE,"Neg","Neg","Neg_2"
"16",59,"Nonmusician","incongruent",869.2,FALSE,"Neg","Pos","Neg_3"
"16",60,"Non-musician","incongruent",837.8,FALSE,"Neg","Pos","Neg_4"
"16",61,"Non-musician","incongruent",975.9,FALSE,"Neg","Pos","Neg_5"
"16",62,"Non-musician","congruent",895.1,TRUE,"Neg","Neg","Neg_6"
"16",63,"Non-musician","congruent",848.5,TRUE,"Neg","Neg","Neg_7"
"16",64,"Non-musician","congruent",807.3,TRUE,"Neg","Neg","Neg_8"
"17",1,"Musician","incongrunet",803.6,TRUE,"Pos","Neg","Pos_1"
"17",2,"Musician","congruent",752,TRUE,"Pos","Pos","Pos_2"
"17",3,"Musician","congruent",752.1,TRUE,"Pos","Pos","Pos_3"
"17",4,"Musician","congruent",717.6,TRUE,"Pos","Pos","Pos_4"
"17",5,"Musician","incongruent",771.5,TRUE,"Pos","Neg","Pos_5"
"17",6,"Musician","incongruent",834.3,TRUE,"Pos","Neg","Pos_6"
"17",7,"Musician","congruent",763.1,TRUE,"Pos","Pos","Pos_7"
"17",8,"Musician","congruent",839.8,TRUE,"Pos","Pos","Pos_8"
"17",9,"Musician","incongruent",820.7,TRUE,"Neg","Pos","Neg_1"
"17",10,"Musician","incongruent",821.2,TRUE,"Neg","Pos","Neg_2"
"17",11,"Musician","congruent",795.7,TRUE,"Neg","Neg","Neg_3"
"17",12,"Musician","incongruent",795.5,TRUE,"Neg","Pos","Neg_4"
"17",13,"Musician","incongruent",816.2,FALSE,"Neg","Pos","Neg_5"
"17",14,"Musician","incongruent",906.3,TRUE,"Neg","Pos","Neg_6"
"17",15,"Musician","congruent",706.8,TRUE,"Neg","Neg","Neg_7"
"17",16,"Musician","incongruent",747.6,FALSE,"Neg","Pos","Neg_8"
"17",17,"Musician","congruent",841.5,TRUE,"Pos","Pos","Pos_1"
"17",18,"Musician","incongruent",854.1,FALSE,"Pos","Neg","Pos_2"
"17",19,"Musician","incongruent",848.1,FALSE,"Pos","Neg","Pos_3"
"17",20,"Musician","incongruent",744,TRUE,"Pos","Neg","Pos_4"
"17",21,"Musician","incongruent",848.3,TRUE,"Pos","Neg","Pos_5"
"17",22,"Musician","incongruent",856.5,TRUE,"Pos","Neg","Pos_6"
"17",23,"Musician","incongruent",777,TRUE,"Pos","Neg","Pos_7"
"17",24,"Musician","congruent",895.5,TRUE,"Pos","Pos","Pos_8"
"17",25,"Musician","congruent",715.3,TRUE,"Neg","Neg","Neg_1"
"17",26,"Musician","incongruent",815.8,TRUE,"Neg","Pos","Neg_2"
"17",27,"Musician","incongruent",802.7,TRUE,"Neg","Pos","Neg_3"
"17",28,"Musician","incongruent",817.4,FALSE,"Neg","Pos","Neg_4"
"17",29,"Musician","incongruent",906.2,TRUE,"Neg","Pos","Neg_5"
"17",30,"Musician","congruent",758.2,TRUE,"Neg","Neg","Neg_6"
"17",31,"Musician","congruent",759,TRUE,"Neg","Neg","Neg_7"
"17",32,"Musician","congruent",779.6,FALSE,"Neg","Neg","Neg_8"
"17",33,"Musician","incongruent",797.3,TRUE,"Pos","Neg","Pos_1"
"17",34,"Musician","incongruent",794.7,TRUE,"Pos","Neg","Pos_2"
"17",35,"Musician","incongruent",858.6,TRUE,"Pos","Neg","Pos_3"
"17",36,"Musician","congruent",781.5,TRUE,"Pos","Pos","Pos_4"
"17",37,"Musician","congruent",633.5,TRUE,"Pos","Pos","Pos_5"
"17",38,"Musician","congruent",800.8,TRUE,"Pos","Pos","Pos_6"
"17",39,"Musician","incongruent",868.7,TRUE,"Pos","Neg","Pos_7"
"17",40,"Musician","incongruent",734.2,TRUE,"Pos","Neg","Pos_8"
"17",41,"Musician","incongruent",745.1,TRUE,"Neg","Pos","Neg_1"
"17",42,"Musician","incongruent",819.5,TRUE,"Neg","Pos","Neg_2"
"17",43,"Musician","congruent",792.3,TRUE,"Neg","Neg","Neg_3"
"17",44,"Musician","congruent",789.9,TRUE,"Neg","Neg","Neg_4"
"17",45,"Musician","incongruent",820.8,TRUE,"Neg","Pos","Neg_5"
"17",46,"Musician","congruent",739.6,TRUE,"Neg","Neg","Neg_6"
"17",47,"Musician","incongruent",735.2,FALSE,"Neg","Pos","Neg_7"
"17",48,"Musician","incongruent",892.6,TRUE,"Neg","Pos","Neg_8"
"17",49,"Musician","congruent",723.1,TRUE,"Pos","Pos","Pos_1"
"17",50,"Musician","congruent",701.9,TRUE,"Pos","Pos","Pos_2"
"17",51,"Musician","congruent",835.8,TRUE,"Pos","Pos","Pos_3"
"17",52,"Musician","congruent",783,TRUE,"Pos","Pos","Pos_4"
"17",53,"Musician","congruent",788.1,TRUE,"Pos","Pos","Pos_5"
"17",54,"Musician","congruent",774.1,FALSE,"Pos","Pos","Pos_6"
"17",55,"Musician","incongruent",713.6,FALSE,"Pos","Neg","Pos_7"
"17",56,"Musician","congruent",829.5,TRUE,"Pos","Pos","Pos_8"
"17",57,"Musician","incongruent",916.2,TRUE,"Neg","Pos","Neg_1"
"17",58,"Musician","congruent",889.9,TRUE,"Neg","Neg","Neg_2"
"17",59,"Musician","incongruent",839.5,TRUE,"Neg","Pos","Neg_3"
"17",60,"Musician","incongruent",754.4,TRUE,"Neg","Pos","Neg_4"
"17",61,"Musician","congruent",773.3,TRUE,"Neg","Neg","Neg_5"
"17",62,"Musician","congruent",739.9,TRUE,"Neg","Neg","Neg_6"
"17",63,"Musician","incongruent",787.6,TRUE,"Neg","Pos","Neg_7"
"17",64,"Musician","incongruent",786.7,TRUE,"Neg","Pos","Neg_8"
"18",1,"Non-musician","incongruent",799.5,TRUE,"Pos","Neg","Pos_1"
"18",2,"Non-musician","incongruent",785.2,FALSE,"Pos","Neg","Pos_2"
"18",3,"Non-musician","incongruent",781.5,TRUE,"Pos","Neg","Pos_3"
"18",4,"Non-musician","congruent",734,TRUE,"Pos","Pos","Pos_4"
"18",5,"Non-musician","congruent",693.3,TRUE,"Pos","Pos","Pos_5"
"18",6,"Non-musician","congruent",725.6,TRUE,"Pos","Pos","Pos_6"
"18",7,"Non-musician","congruent",673.4,TRUE,"Pos","Pos","Pos_7"
"18",8,"Non-musician","congruent",696.3,TRUE,"Pos","Pos","Pos_8"
"18",9,"Non-musician","congruent",726.8,TRUE,"Neg","Neg","Neg_1"
"18",10,"Non-musician","incongruent",819.9,TRUE,"Neg","Pos","Neg_2"
"18",11,"Non-musician","incongruent",802.2,TRUE,"Neg","Pos","Neg_3"
"18",12,"Non-musician","congruent",720,TRUE,"Neg","Neg","Neg_4"
"18",13,"Non-musician","incongruent",652.5,TRUE,"Neg","Pos","Neg_5"
"18",14,"Non-musician","incongruent",698.3,TRUE,"Neg","Pos","Neg_6"
"18",15,"Non-musician","congruent",791.4,TRUE,"Neg","Neg","Neg_7"
"18",16,"Non-musician","congruent",642,TRUE,"Neg","Neg","Neg_8"
"18",17,"Non-musician","congruent",753.9,TRUE,"Pos","Pos","Pos_1"
"18",18,"Non-musician","incongruent",718,TRUE,"Pos","Neg","Pos_2"
"18",19,"Non-musician","incongruent",781.9,TRUE,"Pos","Neg","Pos_3"
"18",20,"Non-musician","congruent",729.8,TRUE,"Pos","Pos","Pos_4"
"18",21,"Non-musician","incongruent",770.5,TRUE,"Pos","Neg","Pos_5"
"18",22,"Non-musician","incongruent",808.1,TRUE,"Pos","Neg","Pos_6"
"18",23,"Non-musician","congruent",702.9,TRUE,"Pos","Pos","Pos_7"
"18",24,"Non-musician","congruent",662.9,TRUE,"Pos","Pos","Pos_8"
"18",25,"Non-musician","congruent",721.2,TRUE,"Neg","Neg","Neg_1"
"18",26,"Non-musician","incongruent",840,FALSE,"Neg","Pos","Neg_2"
"18",27,"Non-musician","incongruent",745.9,TRUE,"Neg","Pos","Neg_3"
"18",28,"Non-musician","incongruent",713,TRUE,"Neg","Pos","Neg_4"
"18",29,"Non-musician","congruent",728.2,TRUE,"Neg","Neg","Neg_5"
"18",30,"Non-musician","incongruent",778.8,TRUE,"Neg","Pos","Neg_6"
"18",31,"Non-musician","congruent",690.6,TRUE,"Neg","Neg","Neg_7"
"18",32,"Non-musician","incongruent",785.4,FALSE,"Neg","Pos","Neg_8"
"18",33,"Non-musician","incongruent",745.2,TRUE,"Pos","Neg","Pos_1"
"18",34,"Non-musician","incongruent",781.6,TRUE,"Pos","Neg","Pos_2"
"18",35,"Non-musician","congruent",674,TRUE,"Pos","Pos","Pos_3"
"18",36,"Non-musician","congruent",770,TRUE,"Pos","Pos","Pos_4"
"18",37,"Non-musician","incongruent",800.4,FALSE,"Pos","Neg","Pos_5"
"18",38,"Non-musician","incongruent",834.4,TRUE,"Pos","Neg","Pos_6"
"18",39,"Non-musician","congruent",765.6,TRUE,"Pos","Pos","Pos_7"
"18",40,"Non-musician","congruent",707.4,FALSE,"Pos","Pos","Pos_8"
"18",41,"Non-musician","congruent",732.2,TRUE,"Neg","Neg","Neg_1"
"18",42,"Non-musician","congruent",733.2,TRUE,"Neg","Neg","Neg_2"
"18",43,"Non-musician","congruent",642.6,TRUE,"Neg","Neg","Neg_3"
"18",44,"Non-musician","incongruent",793.9,FALSE,"Neg","Pos","Neg_4"
"18",45,"Non-musician","congruent",753.3,FALSE,"Neg","Neg","Neg_5"
"18",46,"Non-musician","incongruent",792.1,TRUE,"Neg","Pos","Neg_6"
"18",47,"Non-musician","incongruent",845.2,TRUE,"Neg","Pos","Neg_7"
"18",48,"Non-musician","congruent",717.3,TRUE,"Neg","Neg","Neg_8"
"18",49,"Non-musician","incongruent",733.4,TRUE,"Pos","Neg","Pos_1"
"18",50,"Non-musician","congruent",749.8,TRUE,"Pos","Pos","Pos_2"
"18",51,"Non-musician","congruent",747.8,TRUE,"Pos","Pos","Pos_3"
"18",52,"Non-musician","incongruent",767.6,FALSE,"Pos","Neg","Pos_4"
"18",53,"Non-musician","incongruent",794.5,FALSE,"Pos","Neg","Pos_5"
"18",54,"Non-musician","congruent",818,TRUE,"Pos","Pos","Pos_6"
"18",55,"Non-musician","incongruent",773.3,TRUE,"Pos","Neg","Pos_7"
"18",56,"Non-musician","congruent",782.3,TRUE,"Pos","Pos","Pos_8"
"18",57,"Non-musician","incongruent",732.5,TRUE,"Neg","Pos","Neg_1"
"18",58,"Non-musician","incongruent",766.5,TRUE,"Neg","Pos","Neg_2"
"18",59,"Non-musician","congruent",737.1,TRUE,"Neg","Neg","Neg_3"
"18",60,"Non-musician","congruent",716,TRUE,"Neg","Neg","Neg_4"
"18",61,"Non-musician","incongruent",808.6,TRUE,"Neg","Pos","Neg_5"
"18",62,"Non-musician","incongruent",768.3,TRUE,"Neg","Pos","Neg_6"
"18",63,"Non-musician","incongruent",864.4,TRUE,"Neg","Pos","Neg_7"
"18",64,"Non-musician","incongruent",785.1,TRUE,"Neg","Pos","Neg_8"
"19",1,"Musician","incongruent",715.7,TRUE,"Pos","Neg","Pos_1"
"19",2,"Musician","congruent",658.6,TRUE,"Pos","Pos","Pos_2"
"19",3,"Musician","incongruent",761.3,TRUE,"Pos","Neg","Pos_3"
"19",4,"Musician","incongruent",660.4,TRUE,"Pos","Neg","Pos_4"
"19",5,"Musician","incongruent",756.4,TRUE,"Pos","Neg","Pos_5"
"19",6,"Musician","congruent",678.1,TRUE,"Pos","Pos","Pos_6"
"19",7,"Musician","congruent",713.3,TRUE,"Pos","Pos","Pos_7"
"19",8,"Musician","incongruent",819.5,TRUE,"Pos","Neg","Pos_8"
"19",9,"Musician","congruent",768.9,TRUE,"Neg","Neg","Neg_1"
"19",10,"Musician","congruent",7.55971293081529,TRUE,"Neg","Neg","Neg_2"
"19",11,"Musician","incongruent",765.7,TRUE,"Neg","Pos","Neg_3"
"19",12,"Musician","congruent",694,TRUE,"Neg","Neg","Neg_4"
"19",13,"Musician","congruent",672.8,TRUE,"Neg","Neg","Neg_5"
"19",14,"Musician","incongruent",742.4,TRUE,"Neg","Pos","Neg_6"
"19",15,"Musician","incongruent",684.6,TRUE,"Neg","Pos","Neg_7"
"19",16,"Musician","incongruent",791.5,TRUE,"Neg","Pos","Neg_8"
"19",17,"Musician","incongruent",727.3,TRUE,"Pos","Neg","Pos_1"
"19",18,"Musician","incongruent",714.7,TRUE,"Pos","Neg","Pos_2"
"19",19,"Musician","congruent",NA,TRUE,"Pos","Pos","Pos_3"
"19",20,"Musician","incongruent",691.6,TRUE,"Pos","Neg","Pos_4"
"19",21,"Musician","incongruent",698.7,TRUE,"Pos","Neg","Pos_5"
"19",22,"Musician","incongruent",745.6,TRUE,"Pos","Neg","Pos_6"
"19",23,"Musician","incongruent",722.8,TRUE,"Pos","Neg","Pos_7"
"19",24,"Musician","incongruent",756.9,TRUE,"Pos","Neg","Pos_8"
"19",25,"Musician","incongruent",703.9,TRUE,"Neg","Pos","Neg_1"
"19",26,"Musician","incongruent",792.2,TRUE,"Neg","Pos","Neg_2"
"19",27,"Musician","incongruent",763.9,FALSE,"Neg","Pos","Neg_3"
"19",28,"Musician","incongruent",797.5,TRUE,"Neg","Pos","Neg_4"
"19",29,"Musician","incongruent",717.7,TRUE,"Neg","Pos","Neg_5"
"19",30,"Musician","congruent",763.9,TRUE,"Neg","Neg","Neg_6"
"19",31,"Musician","congruent",751.2,TRUE,"Neg","Neg","Neg_7"
"19",32,"Musician","congruent",690.7,TRUE,"Neg","Neg","Neg_8"
"19",33,"Musician","congruent",619.2,FALSE,"Pos","Pos","Pos_1"
"19",34,"Musician","incongruent",719,TRUE,"Pos","Neg","Pos_2"
"19",35,"Musician","congruent",744.7,TRUE,"Pos","Pos","Pos_3"
"19",36,"Musician","congruent",726.8,TRUE,"Pos","Pos","Pos_4"
"19",37,"Musician","incongruent",745.8,TRUE,"Pos","Neg","Pos_5"
"19",38,"Musician","incongruent",695.3,TRUE,"Pos","Neg","Pos_6"
"19",39,"Musician","congruent",7025,TRUE,"Pos","Pos","Pos_7"
"19",40,"Musician","incongruent",690.8,TRUE,"Pos","Neg","Pos_8"
"19",41,"Musician","incongruent",698.6,TRUE,"Neg","Pos","Neg_1"
"19",42,"Musician","incongruent",727.5,TRUE,"Neg","Pos","Neg_2"
"19",43,"Musician","incongruent",753.4,TRUE,"Neg","Pos","Neg_3"
"19",44,"Musician","incongruent",741.4,TRUE,"Neg","Pos","Neg_4"
"19",45,"Musician","congruent",597.7,TRUE,"Neg","Neg","Neg_5"
"19",46,"Musician","congruent",699.7,TRUE,"Neg","Neg","Neg_6"
"19",47,"Musician","incongruent",653.6,TRUE,"Neg","Pos","Neg_7"
"19",48,"Musician","incongruent",634.2,FALSE,"Neg","Pos","Neg_8"
"19",49,"Musician","incongruent",751.8,TRUE,"Pos","Neg","Pos_1"
"19",50,"Musician","incongruent",624.3,TRUE,"Pos","Neg","Pos_2"
"19",51,"Musician","incongruent",771,TRUE,"Pos","Neg","Pos_3"
"19",52,"Musician","incongruent",737.8,FALSE,"Pos","Neg","Pos_4"
"19",53,"Musician","incongruent",618.1,TRUE,"Pos","Neg","Pos_5"
"19",54,"Musician","incongruent",725.8,TRUE,"Pos","Neg","Pos_6"
"19",55,"Musician","incongruent",687.6,TRUE,"Pos","Neg","Pos_7"
"19",56,"Musician","incongruent",NA,TRUE,"Pos","Neg","Pos_8"
"19",57,"Musician","congruent",778.3,TRUE,"Neg","Neg","Neg_1"
"19",58,"Musician","congruent",633.1,TRUE,"Neg","Neg","Neg_2"
"19",59,"Musician","congruent",2523.46233045682,TRUE,"Neg","Neg","Neg_3"
"19",60,"Musician","incongruent",732.5,TRUE,"Neg","Pos","Neg_4"
"19",61,"Musician","incongruent",688.4,TRUE,"Neg","Pos","Neg_5"
"19",62,"Musician","incongruent",667,TRUE,"Neg","Pos","Neg_6"
"19",63,"Musician","incongruent",674.1,TRUE,"Neg","Pos","Neg_7"
"19",64,"Musician","congruent",653.1,TRUE,"Neg","Neg","Neg_8"
"20",1,"Musician","congruent",973,TRUE,"Pos","Pos","Pos_1"
"20",2,"Musician","incongruent",876.9,TRUE,"Pos","Neg","Pos_2"
"20",3,"Musician","incongruent",838.1,FALSE,"Pos","Neg","Pos_3"
"20",4,"Musician","incongruent",767.1,TRUE,"Pos","Neg","Pos_4"
"20",5,"Musician","incongruent",763,TRUE,"Pos","Neg","Pos_5"
"20",6,"Musician","congruent",818.5,TRUE,"Pos","Pos","Pos_6"
"20",7,"Musician","congruent",795,FALSE,"Pos","Pos","Pos_7"
"20",8,"Musician","congruent",854.9,TRUE,"Pos","Pos","Pos_8"
"20",9,"Musician","congruent",5.63911511097103,TRUE,"Neg","Neg","Neg_1"
"20",10,"Musician","incongruent",849.6,FALSE,"Neg","Pos","Neg_2"
"20",11,"Musician","incongruent",853.5,TRUE,"Neg","Pos","Neg_3"
"20",12,"Musician","congruent",883.7,TRUE,"Neg","Neg","Neg_4"
"20",13,"Musician","congruent",839.7,TRUE,"Neg","Neg","Neg_5"
"20",14,"Musician","congruent",901.2,TRUE,"Neg","Neg","Neg_6"
"20",15,"Musician","incongruent",884.8,TRUE,"Neg","Pos","Neg_7"
"20",16,"Musician","incongruent",901.8,TRUE,"Neg","Pos","Neg_8"
"20",17,"Musician","incongruent",815.2,TRUE,"Pos","Neg","Pos_1"
"20",18,"Musician","incongruent",848.2,TRUE,"Pos","Neg","Pos_2"
"20",19,"Musician","incongruent",809.7,TRUE,"Pos","Neg","Pos_3"
"20",20,"Musician","congruent",820.3,TRUE,"Pos","Pos","Pos_4"
"20",21,"Musician","congruent",833.5,TRUE,"Pos","Pos","Pos_5"
"20",22,"Musician","congruent",817,TRUE,"Pos","Pos","Pos_6"
"20",23,"Musician","congruent",862.3,TRUE,"Pos","Pos","Pos_7"
"20",24,"Musician","congruent",960.6,TRUE,"Pos","Pos","Pos_8"
"20",25,"Musician","congruent",899.3,TRUE,"Neg","Neg","Neg_1"
"20",26,"Musician","congruent",847,TRUE,"Neg","Neg","Neg_2"
"20",27,"Musician","incongruent",845.2,TRUE,"Neg","Pos","Neg_3"
"20",28,"Musician","congruent",876.5,TRUE,"Neg","Neg","Neg_4"
"20",29,"Musician","congruent",800,TRUE,"Neg","Neg","Neg_5"
"20",30,"Musician","congruent",841.2,TRUE,"Neg","Neg","Neg_6"
"20",31,"Musician","congruent",883.4,TRUE,"Neg","Neg","Neg_7"
"20",32,"Musician","congruent",860.8,TRUE,"Neg","Neg","Neg_8"
"20",33,"Musician","congruent",823.6,TRUE,"Pos","Pos","Pos_1"
"20",34,"Musician","incongruent",924,FALSE,"Pos","Neg","Pos_2"
"20",35,"Musician","incongruent",911.9,TRUE,"Pos","Neg","Pos_3"
"20",36,"Musician","incongruent",892.2,TRUE,"Pos","Neg","Pos_4"
"20",37,"Musician","incongruent",892.1,TRUE,"Pos","Neg","Pos_5"
"20",38,"Musician","congruent",921,TRUE,"Pos","Pos","Pos_6"
"20",39,"Musician","incongruent",900,TRUE,"Pos","Neg","Pos_7"
"20",40,"Musician","incongruent",873.7,TRUE,"Pos","Neg","Pos_8"
"20",41,"Musician","incongruent",976.8,FALSE,"Neg","Pos","Neg_1"
"20",42,"Musician","congruent",846.2,TRUE,"Neg","Neg","Neg_2"
"20",43,"Musician","congruent",916.5,TRUE,"Neg","Neg","Neg_3"
"20",44,"Musician","congruent",794.2,TRUE,"Neg","Neg","Neg_4"
"20",45,"Musician","incongruent",887.7,TRUE,"Neg","Pos","Neg_5"
"20",46,"Musician","incongruent",864.4,TRUE,"Neg","Pos","Neg_6"
"20",47,"Musician","congruent",841.9,TRUE,"Neg","Neg","Neg_7"
"20",48,"Musician","congruent",893.5,TRUE,"Neg","Neg","Neg_8"
"20",49,"Musician","incongruent",761.3,TRUE,"Pos","Neg","Pos_1"
"20",50,"Musician","incongruent",831.5,TRUE,"Pos","Neg","Pos_2"
"20",51,"Musician","incongruent",846.5,TRUE,"Pos","Neg","Pos_3"
"20",52,"Musician","congruent",727.5,TRUE,"Pos","Pos","Pos_4"
"20",53,"Musician","congruent",27.3992994462606,TRUE,"Pos","Pos","Pos_5"
"20",54,"Musician","incongruent",810.4,TRUE,"Pos","Neg","Pos_6"
"20",55,"Musician","incongruent",857.7,TRUE,"Pos","Neg","Pos_7"
"20",56,"Musician","congruent",842.7,TRUE,"Pos","Pos","Pos_8"
"20",57,"Musician","congruent",913.5,TRUE,"Neg","Neg","Neg_1"
"20",58,"Musician","incongruent",816.8,TRUE,"Neg","Pos","Neg_2"
"20",59,"Musician","congruent",909.6,TRUE,"Neg","Neg","Neg_3"
"20",60,"Musician","incongruent",867.3,TRUE,"Neg","Pos","Neg_4"
"20",61,"Musician","congruent",776.9,TRUE,"Neg","Neg","Neg_5"
"20",62,"Musician","incongruent",871.8,TRUE,"Neg","Pos","Neg_6"
"20",63,"Musician","incongruent",953.9,TRUE,"Neg","Pos","Neg_7"
"20",64,"Musician","congruent",842.3,TRUE,"Neg","Neg","Neg_8"
"21",1,"Musician","incongruent",819.4,TRUE,"Pos","Neg","Pos_1"
"21",2,"Musician","congruent",821.1,TRUE,"Pos","Pos","Pos_2"
"21",3,"Musician","incongruent",717.7,TRUE,"Pos","Neg","Pos_3"
"21",4,"Musician","incongruent",741.4,TRUE,"Pos","Neg","Pos_4"
"21",5,"Musician","congruent",706.2,TRUE,"Pos","Pos","Pos_5"
"21",6,"Musician","congruent",813.2,FALSE,"Pos","Pos","Pos_6"
"21",7,"Musician","incongruent",787.6,TRUE,"Pos","Neg","Pos_7"
"21",8,"Musician","congruent",814,TRUE,"Pos","Pos","Pos_8"
"21",9,"Musician","congruent",623.4,TRUE,"Neg","Neg","Neg_1"
"21",10,"Musician","incongruent",797.1,TRUE,"Neg","Pos","Neg_2"
"21",11,"Musician","congruent",805.3,TRUE,"Neg","Neg","Neg_3"
"21",12,"Musician","congruent",825.9,TRUE,"Neg","Neg","Neg_4"
"21",13,"Musician","congruent",846.3,TRUE,"Neg","Neg","Neg_5"
"21",14,"Musician","congruent",745.2,TRUE,"Neg","Neg","Neg_6"
"21",15,"Musician","incongruent",930.7,TRUE,"Neg","Pos","Neg_7"
"21",16,"Musician","congruent",768.5,TRUE,"Neg","Neg","Neg_8"
"21",17,"Musician","congruent",869.4,TRUE,"Pos","Pos","Pos_1"
"21",18,"Musician","incongruent",687.8,TRUE,"Pos","Neg","Pos_2"
"21",19,"Musician","incongruent",862.3,TRUE,"Pos","Neg","Pos_3"
"21",20,"Musician","congruent",681,TRUE,"Pos","Pos","Pos_4"
"21",21,"Musician","incongruent",814,TRUE,"Pos","Neg","Pos_5"
"21",22,"Musician","incongruent",718.8,TRUE,"Pos","Neg","Pos_6"
"21",23,"Musician","congruent",NA,TRUE,"Pos","Pos","Pos_7"
"21",24,"Musician","incongruent",844.7,TRUE,"Pos","Neg","Pos_8"
"21",25,"Musician","incongruent",705.2,TRUE,"Neg","Pos","Neg_1"
"21",26,"Musician","incongruent",866.9,TRUE,"Neg","Pos","Neg_2"
"21",27,"Musician","congruent",735.2,TRUE,"Neg","Neg","Neg_3"
"21",28,"Musician","incongruent",704,TRUE,"Neg","Pos","Neg_4"
"21",29,"Musician","congruent",766.1,TRUE,"Neg","Neg","Neg_5"
"21",30,"Musician","incongruent",922.4,TRUE,"Neg","Pos","Neg_6"
"21",31,"Musician","congruent",767.7,TRUE,"Neg","Neg","Neg_7"
"21",32,"Musician","incongruent",848.8,TRUE,"Neg","Pos","Neg_8"
"21",33,"Musician","incongruent",776.9,TRUE,"Pos","Neg","Pos_1"
"21",34,"Musician","incongruent",838.7,TRUE,"Pos","Neg","Pos_2"
"21",35,"Musician","incongruent",911.5,FALSE,"Pos","Neg","Pos_3"
"21",36,"Musician","congruent",731,TRUE,"Pos","Pos","Pos_4"
"21",37,"Musician","congruent",712.4,TRUE,"Pos","Pos","Pos_5"
"21",38,"Musician","congruent",770.3,TRUE,"Pos","Pos","Pos_6"
"21",39,"Musician","congruent",867.5,TRUE,"Pos","Pos","Pos_7"
"21",40,"Musician","congruent",827.9,TRUE,"Pos","Pos","Pos_8"
"21",41,"Musician","congruent",795.5,TRUE,"Neg","Neg","Neg_1"
"21",42,"Musician","congruent",761.8,TRUE,"Neg","Neg","Neg_2"
"21",43,"Musician","incongruent",776.9,TRUE,"Neg","Pos","Neg_3"
"21",44,"Musician","incongruent",831.2,TRUE,"Neg","Pos","Neg_4"
"21",45,"Musician","incongruent",814.7,TRUE,"Neg","Pos","Neg_5"
"21",46,"Musician","congruent",796.7,TRUE,"Neg","Neg","Neg_6"
"21",47,"Musician","incongruent",782.2,FALSE,"Neg","Pos","Neg_7"
"21",48,"Musician","incongruent",NA,TRUE,"Neg","Pos","Neg_8"
"21",49,"Musician","incongruent",NA,TRUE,"Pos","Neg","Pos_1"
"21",50,"Musician","congruent",740.1,TRUE,"Pos","Pos","Pos_2"
"21",51,"Musician","incongruent",776.5,TRUE,"Pos","Neg","Pos_3"
"21",52,"Musician","congruent",772.1,TRUE,"Pos","Pos","Pos_4"
"21",53,"Musician","incongruent",768.1,TRUE,"Pos","Neg","Pos_5"
"21",54,"Musician","congruent",22.4852229829412,TRUE,"Pos","Pos","Pos_6"
"21",55,"Musician","congruent",755.9,TRUE,"Pos","Pos","Pos_7"
"21",56,"Musician","incongruent",808.2,FALSE,"Pos","Neg","Pos_8"
"21",57,"Musician","incongruent",808,TRUE,"Neg","Pos","Neg_1"
"21",58,"Musician","incongruent",791.8,TRUE,"Neg","Pos","Neg_2"
"21",59,"Musician","congruent",797.5,TRUE,"Neg","Neg","Neg_3"
"21",60,"Musician","congruent",758.7,TRUE,"Neg","Neg","Neg_4"
"21",61,"Musician","incongruent",791.9,TRUE,"Neg","Pos","Neg_5"
"21",62,"Musician","congruent",776.9,TRUE,"Neg","Neg","Neg_6"
"21",63,"Musician","congruent",858.5,TRUE,"Neg","Neg","Neg_7"
"21",64,"Musician","congruent",824.7,TRUE,"Neg","Neg","Neg_8"
"22",1,"Non-musician","congruent",678.6,TRUE,"Pos","Pos","Pos_1"
"22",2,"Non-musician","incongruent",794.3,TRUE,"Pos","Neg","Pos_2"
"22",3,"Non-musician","incongruent",770.2,TRUE,"Pos","Neg","Pos_3"
"22",4,"Non-musician","congruent",806.9,TRUE,"Pos","Pos","Pos_4"
"22",5,"Non-musician","incongruent",766.3,TRUE,"Pos","Neg","Pos_5"
"22",6,"Non-musician","incongruent",775.5,TRUE,"Pos","Neg","Pos_6"
"22",7,"Non-musician","congruent",860.3,TRUE,"Pos","Pos","Pos_7"
"22",8,"Non-musician","incongruent",755.9,TRUE,"Pos","Neg","Pos_8"
"22",9,"Non-musician","incongruent",765.8,TRUE,"Neg","Pos","Neg_1"
"22",10,"Non-musician","incongruent",790.9,TRUE,"Neg","Pos","Neg_2"
"22",11,"Non-musician","incongruent",830.3,TRUE,"Neg","Pos","Neg_3"
"22",12,"Non-musician","incongruent",838.5,TRUE,"Neg","Pos","Neg_4"
"22",13,"Non-musician","incongruent",885.5,FALSE,"Neg","Pos","Neg_5"
"22",14,"Non-musician","congruent",856.6,TRUE,"Neg","Neg","Neg_6"
"22",15,"Non-musician","incongruent",823.9,TRUE,"Neg","Pos","Neg_7"
"22",16,"Non-musician","incongruent",796.4,TRUE,"Neg","Pos","Neg_8"
"22",17,"Non-musician","congruent",824.3,TRUE,"Pos","Pos","Pos_1"
"22",18,"Non-musician","incongruent",689.1,TRUE,"Pos","Neg","Pos_2"
"22",19,"Non-musician","congruent",790.9,TRUE,"Pos","Pos","Pos_3"
"22",20,"Non-musician","incongruent",911,TRUE,"Pos","Neg","Pos_4"
"22",21,"Non-musician","incongruent",852.6,TRUE,"Pos","Neg","Pos_5"
"22",22,"Non-musician","incongruent",788.2,FALSE,"Pos","Neg","Pos_6"
"22",23,"Non-musician","incongruent",841.6,TRUE,"Pos","Neg","Pos_7"
"22",24,"Non-musician","incongruent",881,TRUE,"Pos","Neg","Pos_8"
"22",25,"Non-musician","congruent",742.7,TRUE,"Neg","Neg","Neg_1"
"22",26,"Non-musician","incongruent",820.2,TRUE,"Neg","Pos","Neg_2"
"22",27,"Non-musician","congruent",750.9,TRUE,"Neg","Neg","Neg_3"
"22",28,"Non-musician","incongruent",787.5,TRUE,"Neg","Pos","Neg_4"
"22",29,"Non-musician","incongruent",833.4,TRUE,"Neg","Pos","Neg_5"
"22",30,"Non-musician","congruent",812.7,TRUE,"Neg","Neg","Neg_6"
"22",31,"Non-musician","incongruent",792.5,FALSE,"Neg","Pos","Neg_7"
"22",32,"Non-musician","congruent",788.2,TRUE,"Neg","Neg","Neg_8"
"22",33,"Non-musician","incongruent",835.8,TRUE,"Pos","Neg","Pos_1"
"22",34,"Non-musician","congruent",709.8,TRUE,"Pos","Pos","Pos_2"
"22",35,"Non-musician","incongruent",822.4,TRUE,"Pos","Neg","Pos_3"
"22",36,"Non-musician","incongruent",792.7,TRUE,"Pos","Neg","Pos_4"
"22",37,"Non-musician","congruent",736.2,FALSE,"Pos","Pos","Pos_5"
"22",38,"Non-musician","congruent",818.4,TRUE,"Pos","Pos","Pos_6"
"22",39,"Non-musician","congruent",693.1,TRUE,"Pos","Pos","Pos_7"
"22",40,"Non-musician","congruent",731.7,TRUE,"Pos","Pos","Pos_8"
"22",41,"Non-musician","incongruent",2601.42220999114,TRUE,"Neg","Pos","Neg_1"
"22",42,"Non-musician","congruent",782.6,TRUE,"Neg","Neg","Neg_2"
"22",43,"Non-musician","incongruent",766.5,TRUE,"Neg","Pos","Neg_3"
"22",44,"Non-musician","congruent",761.8,TRUE,"Neg","Neg","Neg_4"
"22",45,"Non-musician","congruent",742.2,TRUE,"Neg","Neg","Neg_5"
"22",46,"Non-musician","congruent",778.7,FALSE,"Neg","Neg","Neg_6"
"22",47,"Non-musician","congruent",744.7,TRUE,"Neg","Neg","Neg_7"
"22",48,"Non-musician","congruent",724.4,TRUE,"Neg","Neg","Neg_8"
"22",49,"Non-musician","congruent",718.2,TRUE,"Pos","Pos","Pos_1"
"22",50,"Non-musician","congruent",787.9,TRUE,"Pos","Pos","Pos_2"
"22",51,"Non-musician","incongruent",804.3,TRUE,"Pos","Neg","Pos_3"
"22",52,"Non-musician","incongruent",823.1,FALSE,"Pos","Neg","Pos_4"
"22",53,"Non-musician","incongruent",769.7,TRUE,"Pos","Neg","Pos_5"
"22",54,"Non-musician","incongruent",951.9,TRUE,"Pos","Neg","Pos_6"
"22",55,"Non-musician","incongruent",811.4,FALSE,"Pos","Neg","Pos_7"
"22",56,"Non-musician","incongruent",687.6,FALSE,"Pos","Neg","Pos_8"
"22",57,"Non-musician","congruent",806.4,TRUE,"Neg","Neg","Neg_1"
"22",58,"Non-musician","congruent",752.5,TRUE,"Neg","Neg","Neg_2"
"22",59,"Non-musician","congruent",884.4,TRUE,"Neg","Neg","Neg_3"
"22",60,"Non-musician","incongruent",759.7,TRUE,"Neg","Pos","Neg_4"
"22",61,"Non-musician","congruent",757.3,TRUE,"Neg","Neg","Neg_5"
"22",62,"Non-musician","congruent",885.3,TRUE,"Neg","Neg","Neg_6"
"22",63,"Non-musician","congruent",787.8,TRUE,"Neg","Neg","Neg_7"
"22",64,"Non-musician","congruent",876.8,TRUE,"Neg","Neg","Neg_8"
"23",1,"Non-musician","incongruent",856,FALSE,"Pos","Neg","Pos_1"
"23",2,"Non-musician","congruent",940,FALSE,"Pos","Pos","Pos_2"
"23",3,"Non-musician","incongruent",865.9,FALSE,"Pos","Neg","Pos_3"
"23",4,"Non-musician","congruent",771.2,TRUE,"Pos","Pos","Pos_4"
"23",5,"Non-musician","congruent",867.5,TRUE,"Pos","Pos","Pos_5"
"23",6,"Non-musician","congruent",807.6,TRUE,"Pos","Pos","Pos_6"
"23",7,"Non-musician","congruent",795.9,TRUE,"Pos","Pos","Pos_7"
"23",8,"Non-musician","incongruent",867.1,TRUE,"Pos","Neg","Pos_8"
"23",9,"Non-musician","incongruent",832.2,FALSE,"Neg","Pos","Neg_1"
"23",10,"Non-musician","incongruent",891.5,TRUE,"Neg","Pos","Neg_2"
"23",11,"Non-musician","incongruent",883.9,TRUE,"Neg","Pos","Neg_3"
"23",12,"Non-musician","incongruent",865.4,FALSE,"Neg","Pos","Neg_4"
"23",13,"Non-musician","congruent",796.8,TRUE,"Neg","Neg","Neg_5"
"23",14,"Non-musician","congruent",768.4,TRUE,"Neg","Neg","Neg_6"
"23",15,"Non-musician","congruent",-761.9,TRUE,"Neg","Neg","Neg_7"
"23",16,"Non-musician","incongruent",898.7,TRUE,"Neg","Pos","Neg_8"
"23",17,"Non-musician","congruent",736.6,TRUE,"Pos","Pos","Pos_1"
"23",18,"Non-musician","incongruent",918.3,TRUE,"Pos","Neg","Pos_2"
"23",19,"Non-musician","congruent",851.1,TRUE,"Pos","Pos","Pos_3"
"23",20,"Non-musician","incongruent",870.8,TRUE,"Pos","Neg","Pos_4"
"23",21,"Non-musician","incongruent",855.4,TRUE,"Pos","Neg","Pos_5"
"23",22,"Non-musician","congruent",790.8,TRUE,"Pos","Pos","Pos_6"
"23",23,"Non-musician","incongruent",878.5,FALSE,"Pos","Neg","Pos_7"
"23",24,"Non-musician","incongruent",906.9,FALSE,"Pos","Neg","Pos_8"
"23",25,"Non-musician","congruent",8172,TRUE,"Neg","Neg","Neg_1"
"23",26,"Non-musician","congruent",879,TRUE,"Neg","Neg","Neg_2"
"23",27,"Non-musician","incongruent",805.1,TRUE,"Neg","Pos","Neg_3"
"23",28,"Non-musician","incongruent",749,TRUE,"Neg","Pos","Neg_4"
"23",29,"Non-musician","incongruent",890.1,TRUE,"Neg","Pos","Neg_5"
"23",30,"Non-musician","congruent",744.4,TRUE,"Neg","Neg","Neg_6"
"23",31,"Non-musician","congruent",794.6,TRUE,"Neg","Neg","Neg_7"
"23",32,"Non-musician","congruent",851.7,TRUE,"Neg","Neg","Neg_8"
"23",33,"Non-musician","congruent",754.5,TRUE,"Pos","Pos","Pos_1"
"23",34,"Non-musician","congruent",21.0008731123526,TRUE,"Pos","Pos","Pos_2"
"23",35,"Non-musician","congruent",825.3,FALSE,"Pos","Pos","Pos_3"
"23",36,"Non-musician","incongruent",905.6,TRUE,"Pos","Neg","Pos_4"
"23",37,"Non-musician","incongruent",843.6,TRUE,"Pos","Neg","Pos_5"
"23",38,"Non-musician","incongruent",902.6,TRUE,"Pos","Neg","Pos_6"
"23",39,"Non-musician","incongruent",842.3,FALSE,"Pos","Neg","Pos_7"
"23",40,"Non-musician","congruent",806.9,TRUE,"Pos","Pos","Pos_8"
"23",41,"Non-musician","incongruent",863.9,TRUE,"Neg","Pos","Neg_1"
"23",42,"Non-musician","congruent",925,TRUE,"Neg","Neg","Neg_2"
"23",43,"Non-musician","congruent",810,FALSE,"Neg","Neg","Neg_3"
"23",44,"Non-musician","incongruent",846.9,TRUE,"Neg","Pos","Neg_4"
"23",45,"Non-musician","congruent",872.4,FALSE,"Neg","Neg","Neg_5"
"23",46,"Non-musician","congruent",885.4,TRUE,"Neg","Neg","Neg_6"
"23",47,"Non-musician","congruent",769.6,TRUE,"Neg","Neg","Neg_7"
"23",48,"Non-musician","congruent",872.9,FALSE,"Neg","Neg","Neg_8"
"23",49,"Non-musician","congruent",868.4,TRUE,"Pos","Pos","Pos_1"
"23",50,"Non-musician","congruent",835.8,TRUE,"Pos","Pos","Pos_2"
"23",51,"Non-musician","congruent",816.8,TRUE,"Pos","Pos","Pos_3"
"23",52,"Non-musician","incongruent",946.2,TRUE,"Pos","Neg","Pos_4"
"23",53,"Non-musician","incongruent",947.5,TRUE,"Pos","Neg","Pos_5"
"23",54,"Non-musician","congruent",798.3,TRUE,"Pos","Pos","Pos_6"
"23",55,"Non-musician","congruent",798.4,FALSE,"Pos","Pos","Pos_7"
"23",56,"Non-musician","incongruent",850,TRUE,"Pos","Neg","Pos_8"
"23",57,"Non-musician","congruent",824.2,TRUE,"Neg","Neg","Neg_1"
"23",58,"Non-musician","congruent",832.8,TRUE,"Neg","Neg","Neg_2"
"23",59,"Non-musician","congruent",802.1,TRUE,"Neg","Neg","Neg_3"
"23",60,"Non-musician","congruent",804.9,TRUE,"Neg","Neg","Neg_4"
"23",61,"Non-musician","congruent",904.7,TRUE,"Neg","Neg","Neg_5"
"23",62,"Non-musician","congruent",903.5,TRUE,"Neg","Neg","Neg_6"
"23",63,"Non-musician","incongruent",911.1,TRUE,"Neg","Pos","Neg_7"
"23",64,"Non-musician","congruent",842.5,TRUE,"Neg","Neg","Neg_8"
"24",1,"Musician","congruent",865.4,TRUE,"Pos","Pos","Pos_1"
"24",2,"Musician","incongruent",866.6,TRUE,"Pos","Neg","Pos_2"
"24",3,"Musician","congruent",792.7,TRUE,"Pos","Pos","Pos_3"
"24",4,"Musician","incongruent",840.1,TRUE,"Pos","Neg","Pos_4"
"24",5,"Musician","congruent",890.5,TRUE,"Pos","Pos","Pos_5"
"24",6,"Musician","congruent",772.6,TRUE,"Pos","Pos","Pos_6"
"24",7,"Musician","incongruent",845,FALSE,"Pos","Neg","Pos_7"
"24",8,"Musician","congruent",852.2,TRUE,"Pos","Pos","Pos_8"
"24",9,"Musician","incongruent",857.1,TRUE,"Neg","Pos","Neg_1"
"24",10,"Musician","congruent",895.1,TRUE,"Neg","Neg","Neg_2"
"24",11,"Musician","incongruent",812.5,TRUE,"Neg","Pos","Neg_3"
"24",12,"Musician","incongruent",832.8,TRUE,"Neg","Pos","Neg_4"
"24",13,"Musician","incongruent",916.5,TRUE,"Neg","Pos","Neg_5"
"24",14,"Musician","congruent",887.9,TRUE,"Neg","Neg","Neg_6"
"24",15,"Musician","congruent",804.1,TRUE,"Neg","Neg","Neg_7"
"24",16,"Musician","congruent",856.5,TRUE,"Neg","Neg","Neg_8"
"24",17,"Musician","incongruent",854.1,TRUE,"Pos","Neg","Pos_1"
"24",18,"Musician","congruent",882,TRUE,"Pos","Pos","Pos_2"
"24",19,"Musician","congruent",873.6,TRUE,"Pos","Pos","Pos_3"
"24",20,"Musician","congruent",871.9,TRUE,"Pos","Pos","Pos_4"
"24",21,"Musician","congruent",899.5,TRUE,"Pos","Pos","Pos_5"
"24",22,"Musician","incongruent",887.1,TRUE,"Pos","Neg","Pos_6"
"24",23,"Musician","congruent",772.3,TRUE,"Pos","Pos","Pos_7"
"24",24,"Musician","congruent",785,TRUE,"Pos","Pos","Pos_8"
"24",25,"Musician","congruent",868.9,TRUE,"Neg","Neg","Neg_1"
"24",26,"Musician","incongruent",865.4,TRUE,"Neg","Pos","Neg_2"
"24",27,"Musician","incongruent",934.7,TRUE,"Neg","Pos","Neg_3"
"24",28,"Musician","congruent",928.7,TRUE,"Neg","Neg","Neg_4"
"24",29,"Musician","incongruent",987,TRUE,"Neg","Pos","Neg_5"
"24",30,"Musician","congruent",807.6,TRUE,"Neg","Neg","Neg_6"
"24",31,"Musician","incongruent",936,TRUE,"Neg","Pos","Neg_7"
"24",32,"Musician","congruent",854.7,TRUE,"Neg","Neg","Neg_8"
"24",33,"Musician","congruent",840.6,TRUE,"Pos","Pos","Pos_1"
"24",34,"Musician","incongruent",915.1,TRUE,"Pos","Neg","Pos_2"
"24",35,"Musician","incongruent",801.1,TRUE,"Pos","Neg","Pos_3"
"24",36,"Musician","congruent",847,TRUE,"Pos","Pos","Pos_4"
"24",37,"Musician","congruent",830.3,TRUE,"Pos","Pos","Pos_5"
"24",38,"Musician","incongruent",885.9,TRUE,"Pos","Neg","Pos_6"
"24",39,"Musician","incongruent",-20.1798136357684,TRUE,"Pos","Neg","Pos_7"
"24",40,"Musician","incongruent",864.7,TRUE,"Pos","Neg","Pos_8"
"24",41,"Musician","congruent",856.1,TRUE,"Neg","Neg","Neg_1"
"24",42,"Musician","congruent",873.5,TRUE,"Neg","Neg","Neg_2"
"24",43,"Musician","congruent",768.7,TRUE,"Neg","Neg","Neg_3"
"24",44,"Musician","congruent",888.6,TRUE,"Neg","Neg","Neg_4"
"24",45,"Musician","congruent",874.5,FALSE,"Neg","Neg","Neg_5"
"24",46,"Musician","congruent",896.7,TRUE,"Neg","Neg","Neg_6"
"24",47,"Musician","incongruent",868.7,TRUE,"Neg","Pos","Neg_7"
"24",48,"Musician","congruent",879.3,TRUE,"Neg","Neg","Neg_8"
"24",49,"Musician","incongruent",949.4,TRUE,"Pos","Neg","Pos_1"
"24",50,"Musician","incongruent",826.2,TRUE,"Pos","Neg","Pos_2"
"24",51,"Musician","congruent",915,TRUE,"Pos","Pos","Pos_3"
"24",52,"Musician","congruent",817.8,TRUE,"Pos","Pos","Pos_4"
"24",53,"Musician","incongruent",765.2,TRUE,"Pos","Neg","Pos_5"
"24",54,"Musician","incongruent",891.5,FALSE,"Pos","Neg","Pos_6"
"24",55,"Musician","congruent",930.2,TRUE,"Pos","Pos","Pos_7"
"24",56,"Musician","congruent",8024.46284098551,TRUE,"Pos","Pos","Pos_8"
"24",57,"Musician","congruent",851,TRUE,"Neg","Neg","Neg_1"
"24",58,"Musician","incongruent",867.5,TRUE,"Neg","Pos","Neg_2"
"24",59,"Musician","congruent",995.4,TRUE,"Neg","Neg","Neg_3"
"24",60,"Musician","congruent",838.5,TRUE,"Neg","Neg","Neg_4"
"24",61,"Musician","congruent",788.8,TRUE,"Neg","Neg","Neg_5"
"24",62,"Musician","congruent",935.5,TRUE,"Neg","Neg","Neg_6"
"24",63,"Musician","congruent",912.4,TRUE,"Neg","Neg","Neg_7"
"24",64,"Musician","incongruent",886.5,TRUE,"Neg","Pos","Neg_8"
"25",1,"Non-musician","incongruent",933.9,TRUE,"Pos","Neg","Pos_1"
"25",2,"Non-musician","congruent",920.5,TRUE,"Pos","Pos","Pos_2"
"25",3,"Non-musician","congruent",918,TRUE,"Pos","Pos","Pos_3"
"25",4,"Nonmusician","congruent",928.5,TRUE,"Pos","Pos","Pos_4"
"25",5,"Non-musician","incongruent",917.4,FALSE,"Pos","Neg","Pos_5"
"25",6,"Non-musician","congruent",878.4,FALSE,"Pos","Pos","Pos_6"
"25",7,"Non-musician","congruent",948.7,TRUE,"Pos","Pos","Pos_7"
"25",8,"Non-musician","incongruent",859,TRUE,"Pos","Neg","Pos_8"
"25",9,"Non-musician","incongruent",929.1,FALSE,"Neg","Pos","Neg_1"
"25",10,"Non-musician","incongruent",976.2,TRUE,"Neg","Pos","Neg_2"
"25",11,"Non-musician","congruent",932.7,TRUE,"Neg","Neg","Neg_3"
"25",12,"Non-musician","congruent",822.9,TRUE,"Neg","Neg","Neg_4"
"25",13,"Non-musician","incongruent",996.7,TRUE,"Neg","Pos","Neg_5"
"25",14,"Non-musician","congruent",994.1,TRUE,"Neg","Neg","Neg_6"
"25",15,"Non-musician","incongruent",867.4,FALSE,"Neg","Pos","Neg_7"
"25",16,"Non-musician","incongruent",919.8,TRUE,"Neg","Pos","Neg_8"
"25",17,"Non-musician","congruent",871.7,TRUE,"Pos","Pos","Pos_1"
"25",18,"Non-musician","incongruent",969.3,TRUE,"Pos","Neg","Pos_2"
